"Time (s)","Linear Acceleration x (m/s^2)","Linear Acceleration y (m/s^2)","Linear Acceleration z (m/s^2)","Absolute acceleration (m/s^2)"
0.000000000E0,-1.209301949E-1,8.699871600E-3,9.047508240E-3,1.215798388E-1
4.974365000E-3,9.200716019E-2,1.456298679E-2,-2.923297882E-2,9.763178356E-2
9.948730000E-3,1.900181770E-1,1.252121851E-2,-2.212953568E-2,1.917117755E-1
1.492309600E-2,3.046226501E-1,1.033975743E-2,-1.998806000E-2,3.054527658E-1
1.989746100E-2,4.208755493E-1,5.566678569E-2,-1.503229141E-2,4.248070019E-1
2.484130900E-2,5.135407448E-1,7.237579674E-2,4.367828369E-3,5.186341971E-1
2.981567400E-2,5.574507713E-1,8.379850537E-2,1.371335983E-2,5.638808457E-1
3.479003900E-2,6.185846329E-1,9.394739568E-2,1.732397079E-2,6.259178709E-1
3.976440400E-2,6.452150345E-1,7.826213539E-2,5.203437805E-2,6.520237565E-1
4.470825200E-2,6.420884132E-1,8.601434529E-2,9.314250946E-2,6.544856951E-1
4.965210000E-2,5.850620270E-1,9.324556589E-2,1.061849594E-1,6.018866642E-1
5.462646500E-2,5.360536575E-1,1.076948345E-1,1.630992889E-1,5.705725889E-1
5.960083000E-2,4.672546387E-1,1.188855171E-1,1.846446991E-1,5.162889970E-1
6.457519500E-2,4.126925468E-1,7.971480489E-2,2.286973000E-1,4.785102333E-1
6.951904300E-2,3.447322845E-1,3.690746427E-2,2.709126472E-1,4.399956493E-1
7.449340800E-2,3.061680794E-1,3.544244170E-2,2.424654961E-1,3.921537661E-1
7.946777300E-2,3.006348610E-1,2.783143520E-2,2.670722008E-1,4.030923825E-1
8.441162100E-2,2.808976173E-1,-2.191734314E-2,2.683749199E-1,3.891130157E-1
8.938598600E-2,2.704830170E-1,-1.904177666E-2,3.040618896E-1,4.074030982E-1
9.436035200E-2,2.405281067E-1,-5.797234178E-2,3.152837753E-1,4.007722814E-1
9.933471700E-2,1.764907837E-1,-7.096877694E-2,3.585267067E-1,4.058656963E-1
1.042785640E-1,1.534748077E-1,-6.642359495E-2,4.273314476E-1,4.588886321E-1
1.092529300E-1,1.449890137E-1,-4.643288255E-2,5.168466568E-1,5.388026478E-1
1.142272950E-1,7.712411880E-2,-1.083304584E-1,6.344861984E-1,6.482718210E-1
1.192016600E-1,-3.053665161E-3,-1.312671900E-1,7.645888329E-1,7.757812084E-1
1.241455080E-1,-8.692693710E-2,-1.683541238E-1,9.019918442E-1,9.216771074E-1
1.291198730E-1,-1.357836723E-1,-1.829940975E-1,1.063276768E0,1.087419666E0
1.340942380E-1,-1.292500496E-1,-1.959356964E-1,1.209273338E0,1.231843488E0
1.390380860E-1,-9.942150116E-2,-2.258392274E-1,1.331604958E0,1.354274623E0
1.440124510E-1,-2.396821976E-2,-2.538955808E-1,1.446428299E0,1.468738324E0
1.489868160E-1,4.968976974E-2,-2.292943597E-1,1.541486263E0,1.559238557E0
1.539611820E-1,1.054577827E-1,-2.222030163E-1,1.571505547E0,1.590636730E0
1.589050290E-1,1.711235046E-1,-2.371787131E-1,1.624036789E0,1.650161352E0
1.638793950E-1,2.144026756E-1,-2.501928508E-1,1.620998383E0,1.654146525E0
1.688537600E-1,2.825260162E-1,-2.571735382E-1,1.631961823E0,1.676084296E0
1.738281250E-1,3.027606010E-1,-2.232726514E-1,1.556854725E0,1.601658919E0
1.787719730E-1,3.444952965E-1,-1.563827395E-1,1.478747368E0,1.526376870E0
1.837463380E-1,3.747692108E-1,-1.028609872E-1,1.383094311E0,1.436656611E0
1.887207030E-1,3.907670975E-1,-5.915492773E-2,1.278795242E0,1.338475066E0
1.936645510E-1,3.897247314E-1,-7.922202349E-2,1.164071560E0,1.230131738E0
1.986389160E-1,3.579273224E-1,-6.272476912E-2,1.045972824E0,1.107296489E0
2.036132810E-1,3.219199181E-1,-2.644127607E-2,9.446706772E-1,9.983657962E-1
2.085876460E-1,2.505321503E-1,-1.402395964E-2,7.957372665E-1,8.343625274E-1
2.135314940E-1,2.614021301E-1,1.108121872E-2,7.135629654E-1,7.600170871E-1
2.185058590E-1,2.705864906E-1,3.631466627E-2,6.051206589E-1,6.638575267E-1
2.234802250E-1,2.544145584E-1,1.546055079E-2,5.527954102E-1,6.087270009E-1
2.284545900E-1,2.283844948E-1,3.809607029E-2,5.206365585E-1,5.698010303E-1
2.333984380E-1,2.444186211E-1,8.081245422E-2,5.255126953E-1,5.851792102E-1
2.383728030E-1,2.284030914E-1,1.224055290E-1,5.615177155E-1,6.184280318E-1
2.433471680E-1,1.947531700E-1,1.383951902E-1,6.566591263E-1,6.987726626E-1
2.483215330E-1,2.293009758E-1,1.922330260E-1,7.263336182E-1,7.855526708E-1
2.532653810E-1,2.052712440E-1,2.140579224E-1,8.178386688E-1,8.699523929E-1
2.582397460E-1,2.515912056E-1,1.867098212E-1,9.635906219E-1,1.013245073E0
2.632141110E-1,2.940068245E-1,1.590676308E-1,1.148180008E0,1.195851101E0
2.681579590E-1,3.000903130E-1,6.323158741E-2,1.372350693E0,1.406200147E0
2.731323240E-1,3.547019958E-1,-3.378486633E-2,1.596426010E0,1.635705025E0
2.781066890E-1,4.088129997E-1,-3.581893444E-2,1.884131432E0,1.928305556E0
2.830810550E-1,5.064311028E-1,-6.380611658E-2,2.145347595E0,2.205234678E0
2.880249020E-1,6.688485146E-1,-1.587939858E-1,2.394289017E0,2.491022634E0
2.929992680E-1,8.427581787E-1,-1.684095263E-1,2.633169174E0,2.769870578E0
2.979736330E-1,1.064564705E0,-2.402889729E-1,2.868544579E0,3.069134210E0
3.029479980E-1,1.247056961E0,-2.819718719E-1,3.037857056E0,3.295942155E0
3.079223630E-1,1.399505138E0,-3.371998668E-1,3.154198647E0,3.467172837E0
3.128662110E-1,1.567752838E0,-3.956444263E-1,3.233033180E0,3.614814936E0
3.178405760E-1,1.718534470E0,-4.390592575E-1,3.292617798E0,3.739982048E0
3.228149410E-1,1.865414619E0,-4.889488220E-1,3.197956085E0,3.734403001E0
3.277587890E-1,1.943139553E0,-5.075476170E-1,3.119413376E0,3.710004813E0
3.327331540E-1,1.930450916E0,-4.735430479E-1,2.892151833E0,3.509334122E0
3.377075200E-1,1.871953487E0,-4.647448659E-1,2.615396500E0,3.249691755E0
3.426818850E-1,1.822563171E0,-4.356856942E-1,2.209156990E0,2.896883350E0
3.476257320E-1,1.755665779E0,-4.105044007E-1,1.822777748E0,2.563863278E0
3.526000980E-1,1.661842346E0,-3.524578214E-1,1.397659302E0,2.199863183E0
3.575744630E-1,1.532508373E0,-3.550655246E-1,9.787855148E-1,1.852747831E0
3.625488280E-1,1.405880451E0,-3.563738465E-1,6.052703857E-1,1.571577043E0
3.674926760E-1,1.266556263E0,-3.090870976E-1,2.583866119E-1,1.329083610E0
3.724670410E-1,1.135724068E0,-2.231704593E-1,1.059722900E-2,1.157491474E0
3.774414060E-1,1.030052185E0,-1.467661262E-1,-1.987695694E-1,1.059271987E0
3.824157710E-1,9.565558434E-1,-8.231806755E-2,-3.790645599E-1,1.032213779E0
3.873596190E-1,8.666605949E-1,-1.237940788E-2,-4.188938141E-1,9.626660190E-1
3.923339840E-1,7.371850014E-1,-2.600026131E-2,-4.106740952E-1,8.442576338E-1
3.973083500E-1,6.749811172E-1,-8.555614948E-2,-3.950319290E-1,7.867462032E-1
4.022521970E-1,6.360268593E-1,-9.370446205E-2,-3.165721893E-1,7.166091285E-1
4.072265630E-1,6.603178978E-1,-1.409827471E-1,-1.549720764E-1,6.927569600E-1
4.122009280E-1,6.729331017E-1,-2.294988632E-1,5.817317963E-2,7.133672311E-1
4.171752930E-1,7.191309929E-1,-3.050248623E-1,3.174123764E-1,8.431726800E-1
4.221191410E-1,8.072271347E-1,-3.773372173E-1,5.316553116E-1,1.037620544E0
4.270935060E-1,9.351167679E-1,-3.941500187E-1,8.276777267E-1,1.309522060E0
4.320678710E-1,1.115090847E0,-4.936056137E-1,1.053872108E0,1.611744558E0
4.370422360E-1,1.287424564E0,-5.829957724E-1,1.305241585E0,1.923798761E0
4.419860840E-1,1.457868099E0,-6.377600431E-1,1.489683151E0,2.179741535E0
4.469604490E-1,1.610949993E0,-6.717536449E-1,1.652626038E0,2.403660887E0
4.519348140E-1,1.688721657E0,-6.938457489E-1,1.760240555E0,2.536069709E0
4.569091800E-1,1.732888222E0,-7.176792622E-1,1.836298943E0,2.624873124E0
4.618530270E-1,1.727933407E0,-6.790754795E-1,1.878258705E0,2.640975791E0
4.668273930E-1,1.704085827E0,-6.818870306E-1,1.832626343E0,2.593722757E0
4.718017580E-1,1.644269466E0,-6.458020210E-1,1.719218254E0,2.465034226E0
4.767761230E-1,1.621688366E0,-6.467150450E-1,1.612756729E0,2.376783072E0
4.817199710E-1,1.590892792E0,-5.963573456E-1,1.471958160E0,2.247941900E0
4.866943360E-1,1.553150177E0,-5.552303791E-1,1.367980003E0,2.142877863E0
4.916687010E-1,1.539705753E0,-5.221064091E-1,1.185972214E0,2.012416210E0
4.966125490E-1,1.517817974E0,-4.752309322E-1,9.358625412E-1,1.845387368E0
5.015869140E-1,1.496371269E0,-3.887072802E-1,7.112951279E-1,1.701811119E0
5.065612790E-1,1.459717274E0,-3.409217596E-1,5.124845505E-1,1.584185147E0
5.115356450E-1,1.436160564E0,-2.992910147E-1,3.301124573E-1,1.503697613E0
5.164794920E-1,1.424975395E0,-2.416875362E-1,1.793727875E-1,1.456414206E0
5.214538570E-1,1.428582668E0,-1.931508780E-1,3.397750854E-2,1.441981336E0
5.264282230E-1,1.437902927E0,-1.640294790E-1,-1.619720459E-1,1.456264208E0
5.314025880E-1,1.506901741E0,-1.289026737E-1,-3.457870483E-1,1.551430772E0
5.363464360E-1,1.543605328E0,-5.370271206E-2,-4.269170761E-1,1.602454236E0
5.413208010E-1,1.582294464E0,1.969325542E-2,-5.503730774E-1,1.675396705E0
5.462951660E-1,1.636908531E0,6.222963333E-2,-6.632204056E-1,1.767258717E0
5.512695310E-1,1.708046436E0,9.329044819E-2,-7.613582611E-1,1.872376067E0
5.562133790E-1,1.725337505E0,1.208490133E-1,-7.632217407E-1,1.890476505E0
5.611877440E-1,1.729186535E0,1.336729527E-1,-7.733564377E-1,1.898956216E0
5.661621090E-1,1.682871342E0,1.778196096E-1,-8.155336380E-1,1.878502297E0
5.711364750E-1,1.686551571E0,1.770952940E-1,-8.253707886E-1,1.886015876E0
5.760803220E-1,1.707059860E0,2.027733326E-1,-8.358926773E-1,1.911514310E0
5.810546880E-1,1.713033676E0,1.997586489E-1,-8.593845367E-1,1.926896384E0
5.860290530E-1,1.752408981E0,1.584252119E-1,-8.638982773E-1,1.960192853E0
5.910034180E-1,1.772886753E0,1.537863016E-1,-7.639646530E-1,1.936600025E0
5.959472660E-1,1.799258232E0,1.493413448E-1,-7.354373932E-1,1.949487415E0
6.009216310E-1,1.832615376E0,1.561658382E-1,-6.171026230E-1,1.940021271E0
6.058959960E-1,1.863067627E0,1.722832918E-1,-5.276870728E-1,1.944005186E0
6.108703610E-1,1.894944668E0,2.183848619E-1,-3.997287750E-1,1.948920300E0
6.158142090E-1,1.936210632E0,1.802238226E-1,-3.085575104E-1,1.968908321E0
6.207885740E-1,1.920141697E0,1.329046488E-1,-1.962118149E-1,1.934711053E0
6.257629390E-1,1.928177357E0,1.365813017E-1,-7.255935669E-2,1.934369983E0
6.307067870E-1,1.919402599E0,9.716427326E-2,5.674362183E-3,1.921868735E0
6.356811520E-1,1.898705482E0,1.027172804E-1,7.809638977E-2,1.903084968E0
6.406555180E-1,1.858338356E0,1.362578869E-1,9.006977081E-2,1.865502672E0
6.456298830E-1,1.793954372E0,1.031732559E-1,7.095241547E-2,1.798319008E0
6.505737300E-1,1.790865898E0,7.703089714E-2,1.199913025E-1,1.796533422E0
6.555480960E-1,1.700960636E0,3.279078007E-2,1.940364838E-1,1.712306187E0
6.605224610E-1,1.650400639E0,4.724359512E-2,1.839694977E-1,1.661294375E0
6.654968260E-1,1.564803123E0,7.884597778E-2,1.927127838E-1,1.578595490E0
6.704406740E-1,1.481448650E0,5.146348476E-2,2.234668732E-1,1.499091737E0
6.754150390E-1,1.399591923E0,-1.331520081E-2,2.817163467E-1,1.427725094E0
6.803894040E-1,1.639215469E0,-1.783277988E-1,3.932828903E-1,1.695139991E0
6.853637700E-1,1.642858028E0,1.885246038E-1,4.925317764E-1,1.725430839E0
6.903076170E-1,1.271332264E0,6.067129374E-1,6.534099579E-1,1.552846060E0
6.952819820E-1,1.089241505E0,2.657358646E-1,7.859725952E-1,1.369239032E0
7.002563480E-1,1.090085030E0,-3.855036497E-1,7.963752747E-1,1.403962967E0
7.052307130E-1,1.093378544E0,-6.959563494E-1,6.856155396E-1,1.466253917E0
7.101745610E-1,9.587149620E-1,-3.780682087E-1,7.595500946E-1,1.280229001E0
7.151489260E-1,8.103222847E-1,-5.776047707E-3,9.140377045E-1,1.221523841E0
7.201232910E-1,7.923569679E-1,-2.100563049E-2,1.037935257E0,1.305978713E0
7.250976560E-1,8.975558281E-1,-2.784100771E-1,1.088129044E0,1.437756395E0
7.300415040E-1,9.327626228E-1,-3.745380640E-1,1.186841965E0,1.555287344E0
7.350158690E-1,9.384212494E-1,-4.134644270E-1,1.202484131E0,1.580365578E0
7.399902340E-1,9.122958183E-1,-4.513307810E-1,1.302887917E0,1.653329990E0
7.449340820E-1,8.934841156E-1,-5.042103529E-1,1.391837120E0,1.729090083E0
7.499084470E-1,8.993639946E-1,-4.546968937E-1,1.419265747E0,1.740666574E0
7.548828130E-1,8.590836525E-1,-4.504632950E-1,1.367458344E0,1.676569182E0
7.598571780E-1,8.392891884E-1,-4.877012968E-1,1.309328079E0,1.629907640E0
7.648010250E-1,8.060636520E-1,-5.850713253E-1,1.289779663E0,1.629594626E0
7.697753910E-1,7.877807617E-1,-6.526821852E-1,1.252308846E0,1.617055969E0
7.747497560E-1,7.518577576E-1,-7.258776426E-1,1.307423592E0,1.673781613E0
7.797241210E-1,7.210407257E-1,-7.791057825E-1,1.320773125E0,1.694505000E0
7.846679690E-1,6.294484138E-1,-8.213555813E-1,1.316447258E0,1.674474150E0
7.896423340E-1,5.729436874E-1,-8.541193008E-1,1.321004868E0,1.674167886E0
7.946166990E-1,5.435619354E-1,-8.514236212E-1,1.339746475E0,1.677886283E0
7.995910640E-1,4.765734673E-1,-7.985625267E-1,1.310300827E0,1.606770872E0
8.045349120E-1,4.291529655E-1,-7.195966244E-1,1.220108986E0,1.480086993E0
8.095092770E-1,3.674359322E-1,-6.678953171E-1,1.060575485E0,1.306106305E0
8.144836430E-1,4.149217606E-1,-6.667388678E-1,9.136648178E-1,1.204775574E0
8.194580080E-1,4.781522751E-1,-7.427341938E-1,7.554159164E-1,1.162298106E0
8.244018550E-1,5.404548645E-1,-8.277220726E-1,6.556606293E-1,1.186215053E0
8.293762210E-1,6.643323898E-1,-8.530193567E-1,5.345082283E-1,1.206100573E0
8.343505860E-1,8.384637833E-1,-7.832000256E-1,3.304362297E-1,1.193989907E0
8.393249510E-1,1.007375717E0,-6.576278210E-1,8.913230896E-2,1.206326969E0
8.442687990E-1,1.126349926E0,-4.807193279E-1,-1.849212646E-1,1.238527796E0
8.492431640E-1,1.177731037E0,-4.122126102E-1,-5.799579620E-1,1.375979967E0
8.542175290E-1,1.292013645E0,-3.563165665E-1,-1.114870071E0,1.743329008E0
8.591613770E-1,1.436862469E0,-3.831081390E-1,-1.254885197E0,1.945785820E0
8.641357420E-1,1.482356548E0,-9.173038006E-1,-9.359216690E-1,1.978579432E0
8.691101070E-1,1.321873188E0,-8.097863197E-1,-1.258781433E0,1.996905933E0
8.740844730E-1,1.237082481E0,-5.217547417E-1,-1.879396439E0,2.309703888E0
8.790283200E-1,6.244807243E-1,-1.405186653E-1,-2.805512905E0,2.877607397E0
8.840026860E-1,-4.277029037E-1,2.156608105E-1,-3.676552773E0,3.707624529E0
8.889770510E-1,-3.460831642E-1,-3.767342567E-1,-3.241422176E0,3.281542318E0
8.939514160E-1,-7.583222389E-1,-7.986383438E-1,-3.879397392E0,4.032691403E0
8.988952640E-1,-1.024812698E0,-9.318137169E-1,-4.613029480E0,4.816488228E0
9.038696290E-1,-6.256666183E-1,-9.569950104E-1,-4.346990585E0,4.494844304E0
9.088439940E-1,-5.183978081E-1,-1.103905201E0,-4.058126450E0,4.237420591E0
9.138183590E-1,-2.983112335E-1,-1.488815069E0,-4.026128769E0,4.302937690E0
9.187622070E-1,-6.234836578E-2,-1.986504078E0,-4.151810646E0,4.603000914E0
9.237365720E-1,1.104464531E-1,-2.382580757E0,-4.213563919E0,4.841798259E0
9.287109380E-1,1.776552200E-1,-2.727732182E0,-4.290105343E0,5.086952731E0
9.336853030E-1,1.728882790E-1,-2.980050087E0,-4.319640160E0,5.250702809E0
9.386291500E-1,1.950168610E-2,-3.252737045E0,-4.399285793E0,5.471233325E0
9.436035160E-1,-1.616172791E-1,-3.554911375E0,-4.500785351E0,5.737646190E0
9.485778810E-1,-3.965058327E-1,-3.942231178E0,-4.519118309E0,6.010061050E0
9.535522460E-1,-5.750951767E-1,-4.245828629E0,-4.720400333E0,6.374948981E0
9.584960940E-1,-8.014121056E-1,-4.424540043E0,-5.216588497E0,6.887061166E0
9.634704590E-1,-1.150936604E0,-4.660712242E0,-5.797692776E0,7.527292687E0
9.684448240E-1,-1.438757420E0,-5.093842030E0,-6.241209984E0,8.183517068E0
9.734191890E-1,-1.681544781E0,-5.566622734E0,-6.513455868E0,8.731551343E0
9.783630370E-1,-1.893213749E0,-5.979589462E0,-6.718040943E0,9.190855376E0
9.833374020E-1,-2.194850445E0,-6.318642139E0,-6.920129299E0,9.624489414E0
9.883117680E-1,-2.465413570E0,-6.682157040E0,-7.200276375E0,1.012785597E1
9.932556150E-1,-2.645956993E0,-7.090147972E0,-7.203475475E0,1.044803070E1
9.982299800E-1,-2.783125877E0,-7.576107025E0,-7.088209629E0,1.074178305E1
1.003204346E0,-2.866909981E0,-8.157905579E0,-6.951761246E0,1.109493491E1
1.008178711E0,-2.936510086E0,-8.632404327E0,-6.773896217E0,1.135901254E1
1.013122559E0,-2.989863396E0,-9.016212463E0,-6.605509758E0,1.156996670E1
1.018096924E0,-2.922081947E0,-9.425569534E0,-6.350781441E0,1.173509049E1
1.023071289E0,-2.807404518E0,-9.751118660E0,-6.128321648E0,1.185420438E1
1.028045654E0,-2.616982460E0,-9.898108482E0,-5.857634544E0,1.179546655E1
1.032989502E0,-2.405421257E0,-9.949910164E0,-5.678212166E0,1.170593256E1
1.037963867E0,-2.181388855E0,-1.014463806E1,-5.481639385E0,1.173543817E1
1.042938232E0,-1.975726128E0,-1.044125843E1,-5.402162552E0,1.192085280E1
1.047912598E0,-1.775680542E0,-1.075124264E1,-5.331851959E0,1.213140161E1
1.052856445E0,-1.618910789E0,-1.099328232E1,-5.319975853E0,1.231971068E1
1.057830811E0,-1.493107796E0,-1.120317459E1,-5.363434315E0,1.251027256E1
1.062805176E0,-1.313179970E0,-1.139169979E1,-5.437216759E0,1.269088617E1
1.067749023E0,-1.007451057E0,-1.160771942E1,-5.437319279E0,1.285762609E1
1.072723389E0,-6.021299362E-1,-1.175259209E1,-5.457358360E0,1.297184418E1
1.077697754E0,-2.516613007E-1,-1.183609772E1,-5.554839611E0,1.307718569E1
1.082672119E0,6.596565247E-2,-1.193445301E1,-5.644067287E0,1.320193227E1
1.087615967E0,3.736600876E-1,-1.205981827E1,-5.719396591E0,1.335254043E1
1.092590332E0,6.729907990E-1,-1.226018524E1,-5.637655258E0,1.351104051E1
1.097564697E0,9.523830414E-1,-1.252780342E1,-5.583943367E0,1.374893871E1
1.102539063E0,1.225265503E0,-1.279150009E1,-5.488184452E0,1.397297101E1
1.107482910E0,1.554856300E0,-1.307293987E1,-5.377015591E0,1.422081684E1
1.112457275E0,1.902887344E0,-1.339445496E1,-5.243992805E0,1.450971621E1
1.117431641E0,2.261761665E0,-1.373683357E1,-5.079341412E0,1.481944235E1
1.122406006E0,2.610124588E0,-1.399090481E1,-5.016439915E0,1.509048830E1
1.127349854E0,2.824831963E0,-1.427772045E1,-5.024783134E0,1.539744857E1
1.132324219E0,2.997918129E0,-1.458204269E1,-5.100376606E0,1.573649655E1
1.137298584E0,3.136154175E0,-1.497943687E1,-5.240411282E0,1.617655410E1
1.142272949E0,3.261422157E0,-1.547803497E1,-5.459295273E0,1.673350967E1
1.147216797E0,3.371945381E0,-1.600869751E1,-5.787638187E0,1.735353472E1
1.152191162E0,3.445215225E0,-1.651938629E1,-6.070096493E0,1.793336842E1
1.157165527E0,3.403954506E0,-1.701279831E1,-6.319696426E0,1.846512322E1
1.162139893E0,3.261127472E0,-1.748950386E1,-6.543743610E0,1.895622004E1
1.167083740E0,3.112932205E0,-1.799799728E1,-6.734699249E0,1.946726553E1
1.172058105E0,2.858563423E0,-1.866990089E1,-6.849672794E0,2.009115730E1
1.177032471E0,2.616375923E0,-1.922395325E1,-6.926387787E0,2.060050119E1
1.182006836E0,2.352361679E0,-1.909139252E1,-6.921693802E0,2.044320716E1
1.186981201E0,2.024726868E0,-1.894943619E1,-6.820293427E0,2.024097461E1
1.191925049E0,1.659635544E0,-1.883241463E1,-6.750734329E0,2.007452726E1
1.196899414E0,1.297992229E0,-1.871022224E1,-6.822646141E0,1.995759757E1
1.201873779E0,9.363131523E-1,-1.859145737E1,-6.908272743E0,1.985555846E1
1.206817627E0,5.647106171E-1,-1.847801590E1,-6.746500015E0,1.967920812E1
1.211791992E0,-1.620388031E-2,-1.837029648E1,-6.527653217E0,1.949559724E1
1.216766357E0,-7.348756790E-1,-1.826939392E1,-6.133947849E0,1.928564525E1
1.221740723E0,-1.450199127E0,-1.817651367E1,-5.674484253E0,1.909681906E1
1.226684570E0,-2.085225582E0,-1.809258080E1,-4.912709236E0,1.886330718E1
1.231658936E0,-2.527756691E0,-1.801794434E1,-4.272057056E0,1.868920393E1
1.236633301E0,-2.744343281E0,-1.795342064E1,-3.399124146E0,1.847730439E1
1.241577148E0,-2.826560974E0,-1.789840317E1,-2.244809151E0,1.825873629E1
1.246551514E0,-2.981192589E0,-1.785168076E1,-1.230667591E0,1.814068791E1
1.251525879E0,-3.088692188E0,-1.781283569E1,-4.365830421E-1,1.808390831E1
1.256500244E0,-3.177396774E0,-1.778167534E1,6.628494263E-1,1.807548609E1
1.261444092E0,-3.339033604E0,-1.775716400E1,1.729026318E0,1.815091047E1
1.266418457E0,-3.468293667E0,-1.773910904E1,2.649545670E0,1.826814557E1
1.271392822E0,-3.597345352E0,-1.772693062E1,3.581299782E0,1.843937827E1
1.276367188E0,-3.738471031E0,-1.772013664E1,4.458521843E0,1.865094704E1
1.281311035E0,-3.809065342E0,-1.771757317E1,5.372062683E0,1.890186327E1
1.286285400E0,-4.028203487E0,-1.771937943E1,6.319627285E0,1.923903635E1
1.291259766E0,-4.226927757E0,-1.772434044E1,7.293743610E0,1.962696762E1
1.296203613E0,-4.409940720E0,-1.773133278E1,8.115923882E0,1.999289773E1
1.301177979E0,-4.568210125E0,-1.774046326E1,8.877297401E0,2.035679222E1
1.306152344E0,-4.741402149E0,-1.775075912E1,9.595735550E0,2.072796383E1
1.311126709E0,-4.897613049E0,-1.776162529E1,1.021591568E1,2.106719914E1
1.316070557E0,-5.044819355E0,-1.777178955E1,1.083843231E1,2.141864424E1
1.321044922E0,-5.105018139E0,-1.778165817E1,1.128039360E1,2.166785309E1
1.326019287E0,-5.171342850E0,-1.779027176E1,1.150652599E1,2.180909665E1
1.330993652E0,-5.239643574E0,-1.779767227E1,1.165835857E1,2.191183077E1
1.335937500E0,-5.250183105E0,-1.780326653E1,1.178894138E1,2.198863026E1
1.340911865E0,-5.200026989E0,-1.780750275E1,1.193951988E1,2.206126854E1
1.345886230E0,-5.198585033E0,-1.780960846E1,1.209139633E1,2.214518695E1
1.350860596E0,-5.235076427E0,-1.780965996E1,1.214821243E1,2.218488401E1
1.355804443E0,-5.240769386E0,-1.780724335E1,1.222360611E1,2.222566367E1
1.360778809E0,-5.227579594E0,-1.780337143E1,1.229354000E1,2.225800414E1
1.365753174E0,-5.159256935E0,-1.779771996E1,1.235206413E1,2.226994064E1
1.370727539E0,-5.043002605E0,-1.779039192E1,1.237291718E1,2.224902244E1
1.375671387E0,-4.870094299E0,-1.778123093E1,1.248684978E1,2.226682306E1
1.380645752E0,-4.666649818E0,-1.777063751E1,1.267194748E1,2.231930624E1
1.385620117E0,-4.532515049E0,-1.759700775E1,1.286400414E1,2.226389402E1
1.390563965E0,-4.453369141E0,-1.703974915E1,1.307551384E1,2.193523672E1
1.395538330E0,-4.320388794E0,-1.640661240E1,1.332019997E1,2.157012788E1
1.400512695E0,-4.172894478E0,-1.588346291E1,1.339995766E1,2.119566718E1
1.405487061E0,-4.100227833E0,-1.549817467E1,1.336864090E1,2.087404718E1
1.410461426E0,-4.022100925E0,-1.515503120E1,1.327783871E1,2.054636872E1
1.415405273E0,-4.077253342E0,-1.474237823E1,1.325753784E1,2.024164076E1
1.420379639E0,-4.127618790E0,-1.422013760E1,1.338733768E1,1.996172238E1
1.425354004E0,-4.144844055E0,-1.367981434E1,1.352196693E1,1.967639810E1
1.430297852E0,-4.074048042E0,-1.308590984E1,1.357816124E1,1.929262467E1
1.435272217E0,-4.024000168E0,-1.247174358E1,1.361772728E1,1.889919209E1
1.440246582E0,-4.019999981E0,-1.188259125E1,1.368937969E1,1.856759249E1
1.445220947E0,-3.978582382E0,-1.124937439E1,1.372237301E1,1.818463810E1
1.450164795E0,-3.932397366E0,-1.061714840E1,1.372535896E1,1.779250033E1
1.455139160E0,-3.944230556E0,-1.001819324E1,1.368730259E1,1.741445959E1
1.460113525E0,-4.050090790E0,-9.457886696E0,1.354990101E1,1.701336749E1
1.465087891E0,-4.094280720E0,-8.949932098E0,1.337655830E1,1.660712893E1
1.470062256E0,-4.124704838E0,-8.467363358E0,1.320615101E1,1.622072306E1
1.475020674E0,-4.209107399E0,-8.010443687E0,1.291900730E1,1.577290534E1
1.479964522E0,-4.307057381E0,-7.543622017E0,1.263332176E1,1.533159467E1
1.484938887E0,-4.350089550E0,-7.087203026E0,1.236246300E1,1.489906766E1
1.489913252E0,-4.298982620E0,-6.695958614E0,1.211539745E1,1.449482559E1
1.494857100E0,-4.206933498E0,-6.315458298E0,1.182015514E1,1.404632943E1
1.499831465E0,-4.124018669E0,-5.938369274E0,1.152101040E1,1.360167049E1
1.504775313E0,-3.915726185E0,-5.612116337E0,1.128603554E1,1.319861203E1
1.509749678E0,-3.656766415E0,-5.355832100E0,1.109165001E1,1.284840761E1
1.514724043E0,-3.336681366E0,-5.065218449E0,1.091164017E1,1.248414080E1
1.519698408E0,-3.002302647E0,-4.757917404E0,1.079620171E1,1.217413531E1
1.524672774E0,-2.721636295E0,-4.480015755E0,1.067340469E1,1.189114852E1
1.529616621E0,-2.466267109E0,-4.249670982E0,1.047390270E1,1.156913198E1
1.534590987E0,-2.258353233E0,-4.073731422E0,1.027924538E1,1.128531491E1
1.539565352E0,-2.104063034E0,-3.925081968E0,1.009649372E1,1.103505936E1
1.544509199E0,-1.970751286E0,-3.720874310E0,9.912183762E0,1.076940821E1
1.549483565E0,-1.881899357E0,-3.532269239E0,9.749692917E0,1.053921169E1
1.554457930E0,-1.837660313E0,-3.306850433E0,9.548430443E0,1.027057833E1
1.559432295E0,-1.831446648E0,-3.151034117E0,9.310233116E0,9.998182510E0
1.564406660E0,-1.814441204E0,-3.046251535E0,9.099182129E0,9.765600889E0
1.569381026E0,-1.794851780E0,-2.880137205E0,8.925073624E0,9.548487965E0
1.574324873E0,-1.774430275E0,-2.675867319E0,8.681114197E0,9.255842069E0
1.579299239E0,-1.794492722E0,-2.646230459E0,8.405189514E0,8.992772128E0
1.584243086E0,-1.781046391E0,-2.688705921E0,8.188306808E0,8.800547379E0
1.589217451E0,-1.773027897E0,-2.710634232E0,7.940866470E0,8.576043736E0
1.594191817E0,-1.799127579E0,-2.679497480E0,7.697920322E0,8.347127894E0
1.599166182E0,-1.805114746E0,-2.614085674E0,7.458598137E0,8.106945746E0
1.604110030E0,-1.786430359E0,-2.635082722E0,7.150439262E0,7.827117990E0
1.609084395E0,-1.776992798E0,-2.691219568E0,6.949698448E0,7.661506033E0
1.614058760E0,-1.774531841E0,-2.724404812E0,6.788137913E0,7.526630133E0
1.619002608E0,-1.759705067E0,-2.706684351E0,6.630088329E0,7.374332061E0
1.623976973E0,-1.716584206E0,-2.653225660E0,6.492749691E0,7.220946357E0
1.628951338E0,-1.666697025E0,-2.625062227E0,6.359371662E0,7.078872693E0
1.633925703E0,-1.596791744E0,-2.674799681E0,6.304925442E0,7.032523163E0
1.638900069E0,-1.491840363E0,-2.764785290E0,6.351791859E0,7.086246198E0
1.643843916E0,-1.323407173E0,-2.756071329E0,6.465426922E0,7.151858570E0
1.648818282E0,-1.210421562E0,-2.579878330E0,6.555706024E0,7.148298681E0
1.653792647E0,-1.090366840E0,-2.405050755E0,6.514774323E0,7.029612610E0
1.658767012E0,-1.015963554E0,-2.309728146E0,6.317639828E0,6.802911071E0
1.663710860E0,-8.646087646E-1,-2.300523043E0,6.126482487E0,6.601040997E0
1.668685225E0,-7.839856148E-1,-2.335837603E0,5.903038979E0,6.396611598E0
1.673659590E0,-7.904911041E-1,-2.316970110E0,5.577291012E0,6.090927820E0
1.678633955E0,-8.239240646E-1,-2.290503263E0,5.268822670E0,5.803942487E0
1.683577803E0,-8.926591873E-1,-2.279093504E0,4.925220490E0,5.499900408E0
1.688552168E0,-1.010340214E0,-2.292167902E0,4.604930878E0,5.242156944E0
1.693526533E0,-1.071743488E0,-2.364190340E0,4.320230484E0,5.040081498E0
1.698470381E0,-1.139703751E0,-2.414515495E0,4.110452652E0,4.901492703E0
1.703444746E0,-1.115315914E0,-2.524175644E0,3.917011976E0,4.791489861E0
1.708419112E0,-1.089728355E0,-2.678575516E0,3.793263912E0,4.769814020E0
1.713393477E0,-1.005439758E0,-2.734544754E0,3.741770983E0,4.742308953E0
1.718337324E0,-8.654131889E-1,-2.822517395E0,3.806872606E0,4.817449893E0
1.723311690E0,-6.926383972E-1,-2.972162962E0,3.901946783E0,4.953654138E0
1.728286055E0,-5.631437302E-1,-3.159113646E0,4.063346863E0,5.177636296E0
1.733260420E0,-3.575162888E-1,-3.293855429E0,4.306097031E0,5.433210204E0
1.738204268E0,-1.935110092E-1,-3.338220835E0,4.565331936E0,5.658923973E0
1.743178633E0,-1.079006195E-1,-3.392769337E0,4.708848476E0,5.804806654E0
1.748152998E0,-6.645679474E-3,-3.509632826E0,4.812189579E0,5.956067098E0
1.753096846E0,-1.918697357E-2,-3.754537106E0,4.922597885E0,6.191032786E0
1.758071211E0,-9.002542496E-2,-4.032247543E0,4.955831528E0,6.389631520E0
1.763045576E0,-1.578950882E-1,-4.383996010E0,4.929699421E0,6.598961150E0
1.768019942E0,-2.545523643E-1,-4.733090878E0,4.909566879E0,6.824279677E0
1.772994307E0,-3.607764244E-1,-5.068413734E0,4.906846523E0,7.063718583E0
1.777938155E0,-5.057749748E-1,-5.401060104E0,4.935491562E0,7.333916793E0
1.782912520E0,-6.733465195E-1,-5.722339630E0,5.109173775E0,7.700793663E0
1.787886885E0,-9.268260002E-1,-5.984787941E0,5.275182724E0,8.031453536E0
1.792830733E0,-1.171729088E0,-6.184213638E0,5.577497959E0,8.409871037E0
1.797805098E0,-1.369306087E0,-6.340443611E0,6.049193859E0,8.869553015E0
1.802779463E0,-1.580801010E0,-6.472646236E0,6.582885742E0,9.366347518E0
1.807753828E0,-1.725678444E0,-6.583331108E0,7.072484493E0,9.815205116E0
1.812697676E0,-1.850172043E0,-6.725017071E0,7.484282494E0,1.023051688E1
1.817672041E0,-1.955960274E0,-6.846552849E0,7.986086845E0,1.069946959E1
1.822646407E0,-1.968077660E0,-7.011171818E0,8.428781509E0,1.113886070E1
1.827620772E0,-2.048515320E0,-7.203930855E0,8.753373146E0,1.152018126E1
1.832564619E0,-2.191853523E0,-7.434340477E0,8.869093895E0,1.177855962E1
1.837538985E0,-2.401816368E0,-7.731635094E0,8.909048080E0,1.203819093E1
1.842513350E0,-2.650604248E0,-8.101342201E0,8.892326355E0,1.231791039E1
1.847487715E0,-3.047959328E0,-8.476103783E0,8.818509102E0,1.260557393E1
1.852431563E0,-3.449030876E0,-8.819681168E0,8.671931267E0,1.284075472E1
1.857405928E0,-3.867940903E0,-9.235311508E0,8.472155571E0,1.311599655E1
1.862380293E0,-4.294019699E0,-9.698101997E0,8.269186974E0,1.344883790E1
1.867324141E0,-4.709909439E0,-1.014193439E1,8.169504166E0,1.384856955E1
1.872298506E0,-5.006714821E0,-1.056770325E1,8.077053070E0,1.421204881E1
1.877272871E0,-5.331532478E0,-1.101263618E1,7.974800110E0,1.460482219E1
1.882247237E0,-5.608206749E0,-1.152794933E1,7.994147778E0,1.510801104E1
1.887191084E0,-5.890740395E0,-1.213072395E1,8.194173813E0,1.577972657E1
1.892165449E0,-6.048977852E0,-1.275161457E1,8.588689804E0,1.652148298E1
1.897139815E0,-6.056315422E0,-1.338455582E1,9.077422142E0,1.726918885E1
1.902114180E0,-6.100052834E0,-1.405981255E1,9.689467430E0,1.813214694E1
1.907058028E0,-6.208230972E0,-1.479317951E1,1.037063980E1,1.910315319E1
1.912032393E0,-6.396093369E0,-1.553234196E1,1.118910599E1,2.018315510E1
1.917006758E0,-6.600317001E0,-1.618378639E1,1.208298683E1,2.124800455E1
1.921981123E0,-6.878631592E0,-1.684482574E1,1.281135750E1,2.225296852E1
1.926924971E0,-7.296373367E0,-1.746323967E1,1.344376564E1,2.321500891E1
1.931899336E0,-7.897951126E0,-1.753366089E1,1.404677010E1,2.381425301E1
1.936873701E0,-8.608008385E0,-1.758533669E1,1.442276764E1,2.431785560E1
1.941848067E0,-9.337294579E0,-1.765773773E1,1.461436844E1,2.474996034E1
1.946791914E0,-9.985844612E0,-1.772980881E1,1.459226990E1,2.503991920E1
1.951766280E0,-1.057959461E1,-1.780820084E1,1.441957092E1,2.523853928E1
1.956740645E0,-1.069861698E1,-1.789357948E1,1.411092567E1,2.517456684E1
1.961715010E0,-1.062777996E1,-1.798564148E1,1.381558704E1,2.504602666E1
1.966658858E0,-1.055801582E1,-1.808326340E1,1.279937935E1,2.454180566E1
1.971633223E0,-1.048783684E1,-1.818797302E1,1.276273155E1,2.456998984E1
1.976607588E0,-1.041631222E1,-1.829991913E1,1.271943855E1,2.460021783E1
1.981581953E0,-1.034282780E1,-1.842039490E1,1.216511726E1,2.437775857E1
1.986525801E0,-1.026760292E1,-1.854934502E1,1.157833862E1,2.415698234E1
1.991500166E0,-1.019048882E1,-1.869012451E1,1.077327728E1,2.385854815E1
1.996474532E0,-1.011246777E1,-1.884362221E1,1.012415314E1,2.366099277E1
2.001448897E0,-1.003443432E1,-1.901280403E1,9.654325485E0,2.356655660E1
2.006392744E0,-9.957844734E0,-1.920013809E1,9.135752678E0,2.347905346E1
2.011367110E0,-9.884044647E0,-1.941119194E1,8.520233154E0,2.338980727E1
2.016341475E0,-9.815825462E0,-1.964597702E1,7.962310314E0,2.336050573E1
2.021315840E0,-9.755876541E0,-1.990500259E1,7.375133514E0,2.336191023E1
2.026259688E0,-9.706838608E0,-2.018651390E1,6.628091812E0,2.335914511E1
2.031234053E0,-9.670910835E0,-2.049367905E1,5.727865219E0,2.337361412E1
2.036208418E0,-9.650864601E0,-2.082199860E1,4.873204231E0,2.346152025E1
2.041152266E0,-9.648690224E0,-2.116607666E1,4.043982506E0,2.361045994E1
2.046126631E0,-9.665759087E0,-2.152675247E1,2.966914177E0,2.378298868E1
2.051100996E0,-9.702171326E0,-2.189860153E1,1.494911313E0,2.399824238E1
2.056075362E0,-9.757639885E0,-2.227916527E1,-2.587680817E-1,2.432364492E1
2.061019209E0,-9.831601143E0,-2.266285515E1,-2.343900442E0,2.481449685E1
2.065993574E0,-9.925695419E0,-2.305266571E1,-4.598997116E0,2.551657501E1
2.070967940E0,-1.004037380E1,-2.344415283E1,-6.703680038E0,2.636999686E1
2.075911787E0,-1.017601681E1,-2.383324242E1,-8.301140785E0,2.721183016E1
2.080886153E0,-1.033679485E1,-2.422452545E1,-9.760716438E0,2.808822790E1
2.085860518E0,-1.052466297E1,-2.461460686E1,-1.091308308E1,2.890921624E1
2.090834883E0,-1.074232388E1,-2.500184631E1,-1.158275986E1,2.957448507E1
2.095809248E0,-1.099145126E1,-2.538347054E1,-1.195588493E1,3.013429544E1
2.100753096E0,-1.127071571E1,-2.575390434E1,-1.218082809E1,3.063764343E1
2.105727461E0,-1.158371639E1,-2.611476898E1,-1.251115990E1,3.118802280E1
2.110701826E0,-1.192728233E1,-2.645957184E1,-1.295503998E1,3.178367610E1
2.115645674E0,-1.218463516E1,-2.678232002E1,-1.314338207E1,3.222586682E1
2.120620039E0,-1.119567108E1,-2.708371162E1,-1.330276299E1,3.218437493E1
2.125594405E0,-9.449545860E0,-2.735675049E1,-1.371857071E1,3.202943797E1
2.130568770E0,-7.910536289E0,-2.759778976E1,-1.442053986E1,3.212734900E1
2.135543135E0,-6.206022263E0,-2.780477905E1,-1.504523277E1,3.221768893E1
2.140486983E0,-3.984558582E0,-2.797560883E1,-1.489793777E1,3.194463877E1
2.145461348E0,-1.091931820E0,-2.811239815E1,-1.467901325E1,3.173283276E1
2.150435713E0,2.116909504E0,-2.821285248E1,-1.447807693E1,3.178145784E1
2.155379561E0,5.285916328E0,-2.827634048E1,-1.427287865E1,3.211241828E1
2.160353926E0,8.130533218E0,-2.830544281E1,-1.406402206E1,3.263587565E1
2.165328291E0,1.056715488E1,-2.830111885E1,-1.385716438E1,3.323611131E1
2.170302657E0,1.253373814E1,-2.826639557E1,-1.365683365E1,3.380226051E1
2.175277022E0,1.405066586E1,-2.820523262E1,-1.346806431E1,3.426871918E1
2.180220869E0,1.522679520E1,-2.812272263E1,-1.329648018E1,3.463436451E1
2.185195235E0,1.577750874E1,-2.802339172E1,-1.314330864E1,3.474171596E1
2.190169600E0,1.551100731E1,-2.791077042E1,-1.293297386E1,3.445089645E1
2.195113448E0,1.430156708E1,-2.778899002E1,-1.270997620E1,3.373879491E1
2.200087813E0,1.340078640E1,-2.766204643E1,-1.200975800E1,3.300006327E1
2.205062178E0,1.199805164E1,-2.753268051E1,-1.165254021E1,3.221464624E1
2.210036543E0,1.040334034E1,-2.740329552E1,-1.118211937E1,3.137211961E1
2.214980391E0,9.097199440E0,-2.721348953E1,-1.076170635E1,3.064551148E1
2.219954756E0,8.045211792E0,-2.618176460E1,-1.012446213E1,2.920128360E1
2.224929121E0,7.164895535E0,-2.454228973E1,-9.297414780E0,2.720480904E1
2.229872969E0,6.629425049E0,-2.325164795E1,-8.395681381E0,2.559445008E1
2.234847334E0,6.527019978E0,-2.214525604E1,-7.445540428E0,2.425799718E1
2.239821699E0,6.926198483E0,-2.090913963E1,-6.591743469E0,2.299163821E1
2.244796065E0,7.410192490E0,-1.958649635E1,-5.860527039E0,2.174597823E1
2.249739912E0,7.752151966E0,-1.821308136E1,-5.150640488E0,2.045339312E1
2.254714278E0,8.006119728E0,-1.686716652E1,-4.520356178E0,1.921022851E1
2.259688643E0,8.152953148E0,-1.562574673E1,-4.137416840E0,1.810394498E1
2.264663008E0,8.211509705E0,-1.447997856E1,-3.863133430E0,1.708866498E1
2.269606856E0,8.122005463E0,-1.339424133E1,-3.749496460E0,1.610687423E1
2.274581221E0,7.923858166E0,-1.233479309E1,-3.671774864E0,1.511345690E1
2.279555586E0,7.651915073E0,-1.132503128E1,-3.669751167E0,1.415186247E1
2.284529951E0,7.177566528E0,-1.043542576E1,-3.805079460E0,1.322475715E1
2.289473799E0,6.599448204E0,-9.635066986E0,-3.954353333E0,1.232980708E1
2.294448164E0,5.964169025E0,-8.939348221E0,-4.058330536E0,1.148709300E1
2.299422530E0,5.290238857E0,-8.263604164E0,-4.185531616E0,1.066735468E1
2.304396895E0,4.673404694E0,-7.690386772E0,-4.081688881E0,9.881444442E0
2.309340742E0,4.057083130E0,-7.228143215E0,-3.997400284E0,9.202455482E0
2.314315108E0,3.396092653E0,-6.965639114E0,-3.901009560E0,8.675912008E0
2.319289473E0,2.774466753E0,-6.638387203E0,-3.797684669E0,8.135616711E0
2.324233321E0,2.258038998E0,-6.320509911E0,-3.741786003E0,7.684305313E0
2.329207686E0,1.913094759E0,-6.042696953E0,-3.682347298E0,7.330334211E0
2.334182051E0,1.603225112E0,-5.700340748E0,-3.641666412E0,6.951686821E0
2.339156416E0,1.293283463E0,-5.358590603E0,-3.658109665E0,6.615802422E0
2.344100264E0,1.109246492E0,-5.069561481E0,-3.653016090E0,6.346290881E0
2.349074629E0,1.009071350E0,-4.749954224E0,-3.543395996E0,6.011318100E0
2.354048994E0,1.082608342E0,-4.424860477E0,-3.373079300E0,5.668253261E0
2.359023360E0,1.292942524E0,-4.051732540E0,-3.137827873E0,5.285281517E0
2.363967207E0,1.506300926E0,-3.649624825E0,-2.904565811E0,4.901551427E0
2.368941573E0,1.782652617E0,-3.253542423E0,-2.637223244E0,4.551739787E0
2.373915938E0,2.030267715E0,-2.938128948E0,-2.329296112E0,4.263825640E0
2.378890303E0,2.281845331E0,-2.646787643E0,-1.998634338E0,4.025772244E0
2.383834151E0,2.462489367E0,-2.334955692E0,-1.655210495E0,3.775658055E0
2.388808516E0,2.499643803E0,-2.010596275E0,-1.374058723E0,3.489807143E0
2.393782881E0,2.474456787E0,-1.797115326E0,-1.182416916E0,3.278821381E0
2.398757246E0,2.397405386E0,-1.654615879E0,-9.736909866E-1,3.071380867E0
2.403701094E0,2.214975357E0,-1.534726620E0,-8.426790237E-1,2.823403897E0
2.408675459E0,2.008841991E0,-1.379943371E0,-7.300319672E-1,2.544137678E0
2.413649824E0,1.826035500E0,-1.257593155E0,-6.009559631E-1,2.297192691E0
2.418593672E0,1.594323874E0,-1.135782242E0,-5.115118027E-1,2.023243495E0
2.423568037E0,1.365958095E0,-1.037097454E0,-3.659925461E-1,1.753671346E0
2.428542403E0,1.114610076E0,-9.023132324E-1,-2.881402969E-1,1.462719940E0
2.433516768E0,8.265106678E-1,-8.101692200E-1,-1.946811676E-1,1.173624644E0
2.438460616E0,5.876948237E-1,-7.068238258E-1,-7.252120972E-2,9.220870092E-1
2.443434981E0,4.417662621E-1,-5.917868614E-1,-5.993843079E-3,7.385154337E-1
2.448409346E0,3.297700882E-1,-4.208312035E-1,2.947044373E-2,5.354584204E-1
2.453383711E0,2.835089564E-1,-2.971177101E-1,7.023048401E-2,4.166396320E-1
2.458327559E0,2.167015970E-1,-1.890478134E-1,8.930492401E-2,3.011212834E-1
2.463301924E0,1.695046872E-1,-7.285737991E-2,1.267147064E-1,2.238228174E-1
2.468276289E0,1.115868837E-1,4.475784302E-2,1.453418732E-1,1.886243813E-1
2.473250655E0,1.523490697E-1,1.272225380E-1,1.511907578E-1,2.495084336E-1
2.478194502E0,2.424142361E-1,1.776490211E-1,1.843271255E-1,3.525625133E-1
2.483168867E0,3.262394369E-1,1.884355545E-1,2.442016602E-1,4.489705772E-1
2.488143233E0,4.036141336E-1,2.312602997E-1,3.110313416E-1,5.595767959E-1
2.493117598E0,5.372225046E-1,2.607860565E-1,3.537721634E-1,6.940980697E-1
2.498091963E0,6.378787160E-1,3.183712959E-1,4.651651382E-1,8.512509291E-1
2.503035811E0,7.519973516E-1,3.466734886E-1,5.524959564E-1,9.954568330E-1
2.508010176E0,8.601180315E-1,4.001617432E-1,6.271610260E-1,1.137217394E0
2.512984541E0,9.209946394E-1,4.794158936E-1,6.826791763E-1,1.242626888E0
2.517928389E0,9.218057394E-1,5.305523872E-1,7.739706039E-1,1.315386693E0
2.522902754E0,9.216659665E-1,6.168475151E-1,8.579101562E-1,1.402133677E0
2.527877119E0,9.263145328E-1,6.507558823E-1,9.723234177E-1,1.492298449E0
2.532851485E0,8.355237246E-1,7.196969986E-1,9.911451340E-1,1.482711145E0
2.537795332E0,6.834084392E-1,8.396506310E-1,1.003515244E0,1.476178553E0
2.542769698E0,5.797009468E-1,8.786392212E-1,9.952163696E-1,1.448625449E0
2.547744063E0,3.751748800E-1,9.163541794E-1,1.000366211E0,1.407548837E0
2.552687910E0,1.551897228E-1,9.625706673E-1,9.581365585E-1,1.366986395E0
2.557662276E0,2.205483615E-3,9.711532593E-1,9.581842422E-1,1.364280235E0
2.562636641E0,-1.703044027E-1,9.660539627E-1,8.785543442E-1,1.316860503E0
2.567611006E0,-2.672095299E-1,9.545845985E-1,8.293781281E-1,1.292478537E0
2.572554854E0,-3.048511744E-1,9.284553528E-1,8.494415283E-1,1.294802877E0
2.577529219E0,-3.433782458E-1,9.331946373E-1,7.952709198E-1,1.273270076E0
2.582503584E0,-4.318972826E-1,8.753509521E-1,7.559318542E-1,1.234587996E0
2.587477949E0,-4.855085313E-1,7.949981689E-1,6.650190353E-1,1.144548356E0
2.592421797E0,-6.001033187E-1,7.231254578E-1,5.709276199E-1,1.099542072E0
2.597396162E0,-7.284970284E-1,6.823921204E-1,4.521341324E-1,1.095806643E0
2.602370528E0,-8.398274779E-1,6.261105537E-1,2.859973907E-1,1.085872518E0
2.607344893E0,-9.855546355E-1,5.895223618E-1,1.538095474E-1,1.158668171E0
2.612288741E0,-1.063676596E0,5.844535828E-1,4.111957550E-2,1.214365970E0
2.617263106E0,-1.130047321E0,5.479884148E-1,-5.272483826E-2,1.257011599E0
2.622237471E0,-1.150482774E0,6.126360893E-1,-1.798601151E-1,1.315782372E0
2.627211836E0,-1.140328526E0,6.497015953E-1,-2.715101242E-1,1.340216049E0
2.632155684E0,-1.094965935E0,6.415748596E-1,-3.894338608E-1,1.327489145E0
2.637130049E0,-1.064250350E0,6.313152313E-1,-4.601507187E-1,1.320199384E0
2.642104414E0,-9.818396568E-1,6.490216255E-1,-5.089931488E-1,1.282307376E0
2.647048262E0,-8.844950795E-1,6.884889603E-1,-5.217418671E-1,1.236350747E0
2.652022627E0,-7.954291105E-1,6.493253708E-1,-5.390701294E-1,1.159710098E0
2.656996992E0,-6.969439387E-1,6.247553825E-1,-5.938901901E-1,1.108492535E0
2.661971358E0,-6.174276471E-1,6.277666092E-1,-5.720548630E-1,1.050025991E0
2.666915205E0,-5.874340534E-1,5.872931480E-1,-5.286455154E-1,9.846106285E-1
2.671889571E0,-5.608434081E-1,5.340552330E-1,-4.797124863E-1,9.109799064E-1
2.676863936E0,-5.286539197E-1,4.561448097E-1,-4.581699371E-1,8.351423505E-1
2.681838301E0,-5.121437907E-1,4.001874924E-1,-3.462591171E-1,7.364351075E-1
2.686782149E0,-5.282492638E-1,4.077568054E-1,-3.381757736E-1,7.481147979E-1
2.691756514E0,-5.240208507E-1,3.460483551E-1,-2.598724365E-1,6.796182747E-1
2.696730879E0,-5.087416172E-1,2.977948189E-1,-1.586217880E-1,6.104593835E-1
2.701705244E0,-5.253698826E-1,2.523379326E-1,-1.168441772E-1,5.944245179E-1
2.706679610E0,-5.011880398E-1,1.925730705E-1,-1.603126526E-2,5.371506680E-1
2.711623457E0,-4.532690048E-1,1.198635101E-1,4.818916321E-2,4.713196869E-1
2.716597823E0,-4.544233680E-1,1.100015640E-2,1.099929810E-1,4.676751615E-1
2.721572188E0,-4.812632203E-1,-2.573013306E-2,1.735935211E-1,5.122607125E-1
2.726516035E0,-4.426334500E-1,-4.537630081E-2,1.960020065E-1,4.862100023E-1
2.731490401E0,-4.775381982E-1,-8.140325546E-2,1.874799728E-1,5.194400456E-1
2.736464766E0,-5.121761560E-1,-1.937308311E-1,1.180620193E-1,5.601738035E-1
2.741439131E0,-5.262393355E-1,-2.825832367E-1,7.265090942E-2,6.017136184E-1
2.746382979E0,-5.449409485E-1,-3.505964279E-1,8.658409119E-3,6.480381630E-1
2.751357344E0,-5.988874435E-1,-3.762450218E-1,-5.115222931E-2,7.091142623E-1
2.756331709E0,-6.165172458E-1,-4.648914337E-1,-1.014575958E-1,7.787882917E-1
2.761275557E0,-6.657568216E-1,-5.155072212E-1,-1.244029999E-1,8.511497795E-1
2.766249922E0,-6.871082187E-1,-6.179533005E-1,-1.284408569E-1,9.329957339E-1
2.771224287E0,-6.804813743E-1,-7.637844086E-1,-1.249780655E-1,1.030553754E0
2.776198653E0,-6.622838378E-1,-8.572292328E-1,-3.628444672E-2,1.083871948E0
2.781142500E0,-5.833495855E-1,-9.742922783E-1,9.801578522E-2,1.139802297E0
2.786116866E0,-4.861480296E-1,-1.086095333E0,1.667957306E-1,1.201567224E0
2.791091231E0,-3.449774981E-1,-1.156739712E0,3.183517456E-1,1.248360552E0
2.796065596E0,-1.605005860E-1,-1.221435070E0,4.127655029E-1,1.299245715E0
2.801009444E0,-3.341911733E-2,-1.287344456E0,4.435720444E-1,1.362031110E0
2.805983809E0,-2.794653177E-3,-1.353922844E0,4.903020859E-1,1.439969101E0
2.810958174E0,-1.729947329E-2,-1.480087280E0,4.574375153E-1,1.549260052E0
2.815932539E0,-1.405414492E-1,-1.594748497E0,3.569889069E-1,1.640248685E0
2.820876387E0,-1.893003136E-1,-1.746325016E0,2.805309296E-1,1.778815132E0
2.825850752E0,-2.430415004E-1,-1.865601063E0,1.801538467E-1,1.889971403E0
2.830825117E0,-3.036913872E-1,-1.979073048E0,1.741819382E-1,2.009800471E0
2.835799483E0,-2.824890018E-1,-2.037570953E0,2.129650116E-1,2.068054526E0
2.840743330E0,-2.383795083E-1,-2.123045921E0,2.487001419E-1,2.150813924E0
2.845717696E0,-1.886960566E-1,-2.178583145E0,2.993669510E-1,2.207136446E0
2.850692061E0,-1.000769734E-1,-2.251400471E0,3.816957474E-1,2.285718951E0
2.855666426E0,-8.193117380E-2,-2.343762398E0,4.777603149E-1,2.393363703E0
2.860610274E0,-3.441706300E-2,-2.394638062E0,5.020828247E-1,2.446949763E0
2.865584639E0,2.904954553E-2,-2.474730015E0,4.828042984E-1,2.521553591E0
2.870559004E0,1.559430361E-2,-2.601014614E0,3.890609741E-1,2.629997842E0
2.875502852E0,3.441509604E-2,-2.751987457E0,3.499851227E-1,2.774366405E0
2.880477217E0,5.370438099E-3,-2.911752224E0,2.416639328E-1,2.921768525E0
2.885451582E0,-1.132105589E-1,-3.031888485E0,8.150196075E-2,3.035095877E0
2.890425948E0,-1.670904458E-1,-3.163974762E0,-1.451396942E-2,3.168416981E0
2.895369795E0,-2.482519150E-1,-3.294179440E0,-8.415508270E-2,3.304592149E0
2.900344160E0,-3.116488457E-1,-3.475186825E0,-1.328840256E-1,3.491662446E0
2.905318526E0,-3.919760287E-1,-3.653249264E0,-1.805305481E-1,3.678650115E0
2.910292891E0,-4.307806194E-1,-3.820403576E0,-2.144546509E-1,3.850590373E0
2.915236739E0,-4.431260228E-1,-3.961340427E0,-2.389745712E-1,3.993205166E0
2.920211104E0,-4.596906006E-1,-4.083779812E0,-2.134838104E-1,4.115112190E0
2.925185469E0,-4.549196064E-1,-4.188901424E0,-1.959877014E-1,4.218087027E0
2.930159834E0,-4.017807841E-1,-4.294831753E0,-1.794137955E-1,4.317313620E0
2.935103682E0,-3.026989400E-1,-4.405754089E0,-1.984157562E-1,4.420595498E0
2.940078047E0,-2.177679539E-1,-4.461549282E0,-3.038606644E-1,4.477183957E0
2.945052412E0,-1.174908578E-1,-4.490465164E0,-3.038110733E-1,4.502264170E0
2.950026778E0,-1.143082976E-2,-4.527786255E0,-2.701406479E-1,4.535852181E0
2.954970625E0,3.805205226E-2,-4.578412056E0,-3.589611053E-1,4.592619948E0
2.959944991E0,3.909453750E-2,-4.667682171E0,-3.204479218E-1,4.678832344E0
2.964919356E0,2.600246668E-2,-4.778648853E0,-2.855796814E-1,4.787245215E0
2.969893721E0,-2.544429898E-2,-4.930961132E0,-2.800550461E-1,4.938973165E0
2.974868086E0,-6.825196743E-2,-5.080067158E0,-1.871986389E-1,5.083973248E0
2.979811934E0,-8.776581287E-2,-5.258753300E0,-1.290674210E-1,5.261069046E0
2.984786299E0,-1.633250713E-1,-5.403434753E0,-3.384113312E-2,5.406008457E0
2.989760664E0,-1.870164871E-1,-5.522400856E0,3.752899170E-2,5.525694057E0
2.994704512E0,-2.310873270E-1,-5.705757141E0,8.214759827E-2,5.711025664E0
2.999678877E0,-2.814056277E-1,-5.892365932E0,1.651020050E-1,5.901391707E0
3.004653242E0,-3.604592681E-1,-5.998692989E0,2.727632523E-1,6.015700147E0
3.009597090E0,-4.327496290E-1,-6.169798374E0,3.394050598E-1,6.194261862E0
3.014571455E0,-5.773236156E-1,-6.304062843E0,3.099412918E-1,6.338026072E0
3.019545821E0,-7.804390788E-1,-6.441316128E0,2.330312729E-1,6.492606733E0
3.024520186E0,-9.864106178E-1,-6.613460541E0,9.787273407E-2,6.687334694E0
3.029494551E0,-1.245004535E0,-6.774841309E0,-9.571075439E-3,6.888294611E0
3.034438399E0,-1.483758330E0,-6.957806110E0,-1.096363068E-1,7.115098367E0
3.039412764E0,-1.694707990E0,-7.101222992E0,-2.665281296E-1,7.305507539E0
3.044387129E0,-1.863119721E0,-7.285536289E0,-4.384374619E-1,7.532760551E0
3.049330977E0,-2.020541668E0,-7.489812851E0,-4.376983643E-1,7.769907659E0
3.054305342E0,-2.131074429E0,-7.644814014E0,-4.184064865E-1,7.947309200E0
3.059279707E0,-2.241256714E0,-7.824073315E0,-4.195365906E-1,8.149562310E0
3.064254073E0,-2.285071611E0,-7.940691948E0,-3.580665588E-1,8.270692386E0
3.069197920E0,-2.261620283E0,-8.090203285E0,-3.095064163E-1,8.406075762E0
3.074172285E0,-2.302870750E0,-8.218105316E0,-2.143793106E-1,8.537354811E0
3.079146651E0,-2.334273338E0,-8.353811264E0,-1.975412369E-1,8.676060004E0
3.084121016E0,-2.326562405E0,-8.396534920E0,-1.829385757E-1,8.714824026E0
3.089064864E0,-2.361608505E0,-8.460884094E0,-1.966133118E-1,8.786490265E0
3.094039229E0,-2.438571215E0,-8.588062286E0,-2.177591324E-1,8.930221859E0
3.099013594E0,-2.552588940E0,-8.690083504E0,-2.462005615E-1,9.060567108E0
3.103987959E0,-2.630188465E0,-8.856585503E0,-2.698411942E-1,9.242824914E0
3.108931807E0,-2.667786598E0,-9.057001114E0,-2.545862198E-1,9.445166417E0
3.113906172E0,-2.742437124E0,-9.232040405E0,-2.176008224E-1,9.633217611E0
3.118880537E0,-2.787514448E0,-9.426913261E0,-1.707630157E-1,9.831891499E0
3.123824385E0,-2.809840441E0,-9.594462395E0,-9.485435486E-2,9.997895243E0
3.128798750E0,-2.799705744E0,-9.795087814E0,-1.792907715E-2,1.018736566E1
3.133773116E0,-2.799913645E0,-1.001839066E1,2.239990234E-2,1.040231558E1
3.138747481E0,-2.864631653E0,-1.022162628E1,-2.285385132E-2,1.061547364E1
3.143691328E0,-3.075817823E0,-1.045041943E1,-1.098585129E-1,1.089421821E1
3.148665694E0,-3.373309135E0,-1.062010002E1,-1.859169006E-1,1.114451902E1
3.153640059E0,-3.708674908E0,-1.078964615E1,-4.569578171E-1,1.141838623E1
3.158614424E0,-4.102783680E0,-1.100929165E1,-6.623044014E-1,1.176758189E1
3.163558272E0,-4.381185055E0,-1.126716232E1,-8.670129776E-1,1.212004294E1
3.168532637E0,-4.618096352E0,-1.153628349E1,-1.006814480E0,1.246700951E1
3.173507002E0,-4.731438637E0,-1.176539421E1,-1.148797989E0,1.273305734E1
3.178481367E0,-4.852308750E0,-1.199716663E1,-1.218070030E0,1.299848461E1
3.183425215E0,-4.896576405E0,-1.217357731E1,-1.224637508E0,1.317847419E1
3.188399580E0,-4.925728321E0,-1.230315208E1,-1.139395237E0,1.330145000E1
3.193373946E0,-4.866637707E0,-1.247110844E1,-1.043989658E0,1.342768121E1
3.198348311E0,-4.766234398E0,-1.264081097E1,-9.590563774E-1,1.354351806E1
3.203322676E0,-4.598782063E0,-1.288127327E1,-8.105387688E-1,1.370156818E1
3.208266524E0,-4.405574322E0,-1.315712738E1,-7.597346306E-1,1.389590885E1
3.213240889E0,-4.203248978E0,-1.346022797E1,-6.976008415E-1,1.411848738E1
3.218184737E0,-4.053311348E0,-1.377500725E1,-6.346769333E-1,1.437299455E1
3.223159102E0,-3.954952240E0,-1.405679321E1,-5.538215637E-1,1.461306953E1
3.228133467E0,-3.849307060E0,-1.428104973E1,-5.294795036E-1,1.480019915E1
3.233107832E0,-3.788198471E0,-1.460645294E1,-4.990262985E-1,1.509794497E1
3.238082198E0,-3.778130054E0,-1.497263336E1,-4.721102715E-1,1.544917165E1
3.243026045E0,-3.736124039E0,-1.540164757E1,-4.958186150E-1,1.585607791E1
3.248000410E0,-3.864637375E0,-1.585220909E1,-4.377322197E-1,1.632236394E1
3.252974776E0,-3.994533062E0,-1.626302147E1,-3.628864288E-1,1.675033875E1
3.257949141E0,-4.099287510E0,-1.660381699E1,-8.860111237E-2,1.710259474E1
3.262892989E0,-4.202497005E0,-1.686875153E1,6.415843964E-2,1.738447225E1
3.267867354E0,-4.344627857E0,-1.710104370E1,2.648334503E-1,1.764629207E1
3.272841719E0,-4.470179081E0,-1.739611626E1,4.828028679E-1,1.796776170E1
3.277785567E0,-4.542700291E0,-1.771097755E1,7.810802460E-1,1.830095457E1
3.282759932E0,-4.620018959E0,-1.795171738E1,1.147623539E0,1.857217736E1
3.287734297E0,-4.621706486E0,-1.804201889E1,1.544963360E0,1.868854002E1
3.292708662E0,-4.471021652E0,-1.809308624E1,1.918761730E0,1.873583334E1
3.297652510E0,-4.218763351E0,-1.808239365E1,2.308834553E0,1.871100321E1
3.302626875E0,-3.889799118E0,-1.805600357E1,2.584888935E0,1.865024002E1
3.307601241E0,-3.519546509E0,-1.808829498E1,2.817635775E0,1.864169237E1
3.312575606E0,-3.143336296E0,-1.810429192E1,3.084159374E0,1.863217614E1
3.317519453E0,-2.808825493E0,-1.806040001E1,3.348106861E0,1.858164064E1
3.322493819E0,-2.484503746E0,-1.797236252E1,3.496170044E0,1.847706087E1
3.327468184E0,-2.197660446E0,-1.788837242E1,3.548717976E0,1.836891338E1
3.332442549E0,-1.949641228E0,-1.791320610E1,3.614717484E0,1.837798238E1
3.337386397E0,-1.700429916E0,-1.797947311E1,3.660450459E0,1.842693173E1
3.342360762E0,-1.429755211E0,-1.794355011E1,3.738106728E0,1.838446715E1
3.347335127E0,-1.124115944E0,-1.785449600E1,3.742969513E0,1.827721218E1
3.352309492E0,-8.137073517E-1,-1.783422852E1,3.636042118E0,1.821929276E1
3.357253340E0,-4.678707123E-1,-1.791237831E1,3.318656683E0,1.822321821E1
3.362227705E0,-1.879472733E-1,-1.803005981E1,3.078356504E0,1.829192882E1
3.367202071E0,1.005592346E-1,-1.801925850E1,2.934670210E0,1.825694603E1
3.372176436E0,4.091167450E-1,-1.792293167E1,2.803391933E0,1.814546397E1
3.377120283E0,7.335729599E-1,-1.784890938E1,2.605570078E0,1.805299672E1
3.382094649E0,1.046522141E0,-1.793005562E1,2.340139627E0,1.811238131E1
3.387069014E0,1.261101723E0,-1.806434059E1,2.222820282E0,1.824422398E1
3.392012862E0,1.278532028E0,-1.813361740E1,2.319702864E0,1.832604010E1
3.396987227E0,1.240711212E0,-1.817769241E1,2.631944656E0,1.840910097E1
3.401961592E0,1.119377136E0,-1.813994980E1,3.025357246E0,1.842453718E1
3.406935957E0,9.798212051E-1,-1.806218147E1,3.344247818E0,1.839528316E1
3.411910323E0,9.115705490E-1,-1.803537560E1,3.629591465E0,1.841954581E1
3.416854170E0,8.368930817E-1,-1.795304680E1,3.888122082E0,1.838830532E1
3.421828535E0,7.733297348E-1,-1.777004242E1,4.183516502E0,1.827222638E1
3.426802901E0,8.139667511E-1,-1.752072144E1,4.392016888E0,1.808115134E1
3.431746748E0,1.010242462E0,-1.716298294E1,4.548836708E0,1.778427644E1
3.436721114E0,1.211194992E0,-1.686389923E1,4.580408573E0,1.751679860E1
3.441695479E0,1.284065247E0,-1.676329422E1,4.393588543E0,1.737701001E1
3.446669844E0,1.267683983E0,-1.679675102E1,4.133134842E0,1.734418263E1
3.451613692E0,1.222246170E0,-1.679213142E1,4.118186474E0,1.733288849E1
3.456588057E0,1.224651337E0,-1.655929184E1,4.385930061E0,1.717400069E1
3.461562422E0,1.295310974E0,-1.612805939E1,4.614979744E0,1.682528360E1
3.466506270E0,1.307355881E0,-1.575281334E1,4.792603493E0,1.651754690E1
3.471480635E0,1.231616020E0,-1.551523304E1,4.812292099E0,1.629102482E1
3.476455000E0,9.798078537E-1,-1.544239235E1,4.845303535E0,1.621432920E1
3.481429366E0,6.688556671E-1,-1.536318970E1,4.964875221E0,1.615936111E1
3.486373213E0,4.774971008E-1,-1.517062759E1,5.234050751E0,1.605525560E1
3.491347578E0,4.717502594E-1,-1.479654503E1,5.547681808E0,1.580939804E1
3.496321944E0,5.429105759E-1,-1.428141117E1,5.845531940E0,1.544097473E1
3.501296309E0,6.977424622E-1,-1.372836971E1,6.075312138E0,1.502878562E1
3.506240157E0,8.530478477E-1,-1.323108006E1,6.239977837E0,1.465354884E1
3.511214522E0,9.685087204E-1,-1.280860996E1,6.385386944E0,1.434474345E1
3.516188887E0,1.042995930E0,-1.246671867E1,6.481287003E0,1.408949950E1
3.521163252E0,1.087967873E0,-1.224411678E1,6.561361790E0,1.393389890E1
3.526107100E0,1.127428055E0,-1.193594360E1,6.634454727E0,1.370232948E1
3.531081465E0,1.134454250E0,-1.150996399E1,6.694795132E0,1.336362748E1
3.536055830E0,1.125114918E0,-1.104731464E1,6.824596882E0,1.303396206E1
3.541030196E0,1.003201485E0,-1.057596874E1,7.026161671E0,1.273673725E1
3.545974043E0,7.590017319E-1,-1.018708324E1,7.218545914E0,1.250840333E1
3.550948408E0,4.124054909E-1,-9.871257782E0,7.324422836E0,1.229873889E1
3.555922774E0,1.877832413E-2,-9.565727234E0,7.340495110E0,1.205762657E1
3.560897139E0,-2.814283371E-1,-9.298820496E0,7.327169895E0,1.184207259E1
3.565840987E0,-5.637412071E-1,-9.028656960E0,7.325001717E0,1.164002151E1
3.570815352E0,-8.071856499E-1,-8.793626785E0,7.211781025E0,1.140128090E1
3.575789717E0,-1.012564182E0,-8.494089127E0,6.961079597E0,1.102866563E1
3.580764082E0,-1.087787628E0,-8.256319046E0,6.695437431E0,1.068545593E1
3.585707930E0,-1.109686375E0,-7.957025528E0,6.404737473E0,1.027454725E1
3.590682295E0,-1.094507694E0,-7.667352676E0,6.140620708E0,9.884000548E0
3.595656660E0,-1.048105240E0,-7.381167889E0,5.920631886E0,9.520191485E0
3.600600508E0,-9.347238541E-1,-7.137122631E0,5.625689030E0,9.135677599E0
3.605574873E0,-7.865467072E-1,-6.908713341E0,5.394624710E0,8.800622223E0
3.610549239E0,-7.071790695E-1,-6.685062885E0,5.106093407E0,8.441703495E0
3.615523604E0,-7.561426163E-1,-6.548567772E0,4.849507332E0,8.183716325E0
3.620467451E0,-8.413696289E-1,-6.430761337E0,4.684223175E0,8.000283806E0
3.625441817E0,-9.528536797E-1,-6.282233715E0,4.596748352E0,7.842479582E0
3.630416182E0,-1.076223373E0,-6.091927052E0,4.642434120E0,7.734470021E0
3.635390547E0,-1.070399761E0,-5.899979591E0,4.786204338E0,7.672240011E0
3.640334395E0,-1.003283501E0,-5.699796677E0,4.965900421E0,7.625904991E0
3.645308760E0,-8.943791389E-1,-5.512362480E0,5.121601105E0,7.577390846E0
3.650283125E0,-6.873097420E-1,-5.302998066E0,5.333650589E0,7.552616221E0
3.655257491E0,-3.834648132E-1,-5.059109688E0,5.511147976E0,7.490953752E0
3.660201338E0,1.387596130E-2,-4.779232979E0,5.693324089E0,7.433384128E0
3.665175703E0,4.238224030E-1,-4.464538097E0,5.894737244E0,7.406730252E0
3.670150069E0,8.192691803E-1,-4.145853043E0,6.072633743E0,7.398390367E0
3.675124434E0,1.201295853E0,-3.897681236E0,6.216090202E0,7.434702963E0
3.680068282E0,1.548586845E0,-3.647587776E0,6.266810417E0,7.414575551E0
3.685042647E0,1.843749046E0,-3.372277260E0,6.354312897E0,7.426234366E0
3.690017012E0,2.081123352E0,-3.058423996E0,6.410941124E0,7.401702361E0
3.694960860E0,2.258639336E0,-2.775697708E0,6.353540897E0,7.292011475E0
3.699935225E0,2.400618553E0,-2.602893829E0,6.319510937E0,7.243910836E0
3.704909590E0,2.468984604E0,-2.435496330E0,6.203860283E0,7.107419346E0
3.709883955E0,2.456695557E0,-2.313161373E0,6.023831367E0,6.904535679E0
3.714827803E0,2.368422508E0,-2.213657379E0,5.917715549E0,6.747522619E0
3.719802168E0,2.260454178E0,-2.162630558E0,5.750142097E0,6.546049050E0
3.724776533E0,2.154546738E0,-2.019382954E0,5.571601868E0,6.305769305E0
3.729750899E0,2.093169212E0,-1.917962074E0,5.374009132E0,6.077821158E0
3.734694746E0,1.990656853E0,-1.833013535E0,5.243509293E0,5.900596836E0
3.739669112E0,1.926656723E0,-1.780880928E0,5.090744972E0,5.727060972E0
3.744643477E0,1.843324661E0,-1.715812683E0,4.984218121E0,5.584289502E0
3.749617842E0,1.805314064E0,-1.631247520E0,4.927501678E0,5.495489071E0
3.754561690E0,1.710474014E0,-1.618241310E0,4.906676769E0,5.442417037E0
3.759536055E0,1.625411034E0,-1.601402760E0,4.852152348E0,5.361887189E0
3.764510420E0,1.558564186E0,-1.588686943E0,4.870873451E0,5.355227045E0
3.769484785E0,1.499458313E0,-1.529465675E0,4.897499084E0,5.345384716E0
3.774428633E0,1.422563553E0,-1.515850067E0,4.894151688E0,5.317349831E0
3.779402998E0,1.352187157E0,-1.495530128E0,4.887171745E0,5.286725654E0
3.784377364E0,1.327424049E0,-1.458392143E0,4.910676956E0,5.291853212E0
3.789351729E0,1.267661095E0,-1.387778282E0,4.936246872E0,5.281990760E0
3.794295576E0,1.213317871E0,-1.349161625E0,4.905775070E0,5.230583752E0
3.799269942E0,1.159417152E0,-1.380979538E0,4.875283241E0,5.198051491E0
3.804244307E0,1.146203041E0,-1.415117741E0,4.897707939E0,5.225311731E0
3.809188155E0,1.166989326E0,-1.419935226E0,4.943552017E0,5.274162178E0
3.814162520E0,1.289976120E0,-1.396357536E0,4.973730087E0,5.324644940E0
3.819136885E0,1.403546333E0,-1.320968151E0,5.082034588E0,5.435252958E0
3.824111250E0,1.596625328E0,-1.287003994E0,5.186769485E0,5.577469804E0
3.829085616E0,1.803872108E0,-1.188897133E0,5.242690086E0,5.670381849E0
3.834029463E0,1.961140633E0,-1.148308277E0,5.292966843E0,5.760224169E0
3.839003828E0,2.036142349E0,-1.112348080E0,5.325815201E0,5.809259976E0
3.843978194E0,2.070627213E0,-1.137099266E0,5.405838013E0,5.899455603E0
3.848922041E0,2.086465836E0,-1.183470726E0,5.447425842E0,5.952175312E0
3.853896407E0,2.099193573E0,-1.180550575E0,5.524838924E0,6.026952668E0
3.858870772E0,2.060831070E0,-1.180293083E0,5.580917358E0,6.065208572E0
3.863845137E0,2.024726868E0,-1.194936752E0,5.569433212E0,6.045327041E0
3.868788985E0,2.009593010E0,-1.277863026E0,5.586362362E0,6.072795272E0
3.873763350E0,2.031230927E0,-1.321589947E0,5.632839203E0,6.131996131E0
3.878737715E0,2.052885056E0,-1.356923580E0,5.595920086E0,6.113092528E0
3.883712080E0,2.085539818E0,-1.388456345E0,5.577151299E0,6.114074252E0
3.888655928E0,2.137935638E0,-1.423470497E0,5.505891800E0,6.075514922E0
3.893630293E0,2.187574387E0,-1.476858139E0,5.463035583E0,6.067235734E0
3.898604658E0,2.235699654E0,-1.502357483E0,5.376859665E0,6.013821647E0
3.903579024E0,2.252384186E0,-1.566005230E0,5.280656815E0,5.950709478E0
3.908522871E0,2.261304855E0,-1.608440876E0,5.226986885E0,5.917936600E0
3.913497237E0,2.243755341E0,-1.688860416E0,5.199786186E0,5.909692371E0
3.918471602E0,2.241095543E0,-1.732034206E0,5.222588062E0,5.941201713E0
3.923445967E0,2.220120430E0,-1.744008541E0,5.251244068E0,5.962052061E0
3.928389815E0,2.137262344E0,-1.793291569E0,5.283843994E0,5.975181364E0
3.933364180E0,2.067701340E0,-1.956334591E0,5.307673454E0,6.022792655E0
3.938338545E0,1.999651909E0,-2.107233524E0,5.411968231E0,6.142348168E0
3.943282393E0,1.921335220E0,-2.218518734E0,5.597626686E0,6.320346424E0
3.948256758E0,1.934211731E0,-2.330028057E0,5.826376915E0,6.566344015E0
3.953231123E0,1.964566231E0,-2.464524269E0,6.118133545E0,6.882220457E0
3.958205489E0,1.964202881E0,-2.617500305E0,6.330960274E0,7.126742509E0
3.963149336E0,1.963561058E0,-2.722757816E0,6.615277290E0,7.418279840E0
3.968123701E0,1.976365089E0,-2.835833549E0,6.913530350E0,7.729480758E0
3.973098067E0,2.145385742E0,-3.011470795E0,7.400279999E0,8.272592120E0
3.978072432E0,2.137359619E0,-3.009461403E0,7.371772766E0,8.244282734E0
3.983046797E0,2.159341812E0,-3.070657253E0,7.552793503E0,8.434238716E0
3.987990645E0,2.215908051E0,-3.181381226E0,7.740823746E0,8.657470026E0
3.992965010E0,2.237624168E0,-3.290592194E0,7.899177074E0,8.844883117E0
3.997939375E0,2.282776833E0,-3.437170029E0,8.030323029E0,9.028360638E0
4.002883223E0,2.308447838E0,-3.622827053E0,8.088749886E0,9.158694339E0
4.007857588E0,2.306872368E0,-3.838171959E0,8.126211166E0,9.278390595E0
4.012831953E0,2.228328705E0,-4.103911400E0,8.152005196E0,9.394824442E0
4.017806319E0,2.148091316E0,-4.382901192E0,8.224952698E0,9.564202321E0
4.022750166E0,2.068904877E0,-4.694729805E0,8.302682877E0,9.759887206E0
4.027724532E0,2.007024765E0,-4.981053352E0,8.505246162E0,1.005874014E1
4.032698897E0,1.881411552E0,-5.289052010E0,8.758882523E0,1.040345153E1
4.037673262E0,1.802302361E0,-5.591840267E0,9.039376259E0,1.078087633E1
4.042617110E0,1.719309807E0,-5.934241295E0,9.317264557E0,1.117956461E1
4.047591475E0,1.655451775E0,-6.339452267E0,9.586128235E0,1.161133197E1
4.052565840E0,1.714060783E0,-6.732667446E0,9.865042686E0,1.206589750E1
4.057509688E0,1.758479118E0,-7.139163494E0,1.010242462E1,1.249475440E1
4.062484053E0,1.827771187E0,-7.567825794E0,1.028217030E1,1.289712219E1
4.067458418E0,1.849887848E0,-7.967004776E0,1.044692898E1,1.326776451E1
4.072432783E0,1.943518639E0,-8.326408386E0,1.064307213E1,1.365215462E1
4.077376631E0,2.018018723E0,-8.655004501E0,1.083683872E1,1.401494117E1
4.082350996E0,1.961581230E0,-9.003054619E0,1.097464180E1,1.432988332E1
4.087325362E0,1.817965508E0,-9.469811440E0,1.117756844E1,1.476212598E1
4.092299727E0,1.501145363E0,-9.986867905E0,1.145057964E1,1.526783358E1
4.097243574E0,1.132692337E0,-1.053395844E1,1.182516479E1,1.587708395E1
4.102217940E0,5.069246292E-1,-1.117713547E1,1.217669296E1,1.653654079E1
4.107192305E0,-1.799116135E-1,-1.190616226E1,1.246575737E1,1.723903056E1
4.112166670E0,-8.377532959E-1,-1.272591496E1,1.283287716E1,1.809235966E1
4.117110518E0,-1.394054413E0,-1.351826286E1,1.326599693E1,1.899140577E1
4.122084883E0,-1.862125397E0,-1.417726421E1,1.382162285E1,1.988717149E1
4.127059248E0,-2.298561096E0,-1.494497395E1,1.440928173E1,2.088691048E1
4.132033614E0,-2.710875511E0,-1.563530254E1,1.490114880E1,2.176822839E1
4.136977461E0,-2.971618652E0,-1.649221420E1,1.545269203E1,2.279494106E1
4.141951826E0,-2.979432106E0,-1.734346962E1,1.598889160E1,2.377640866E1
4.146926192E0,-2.917732239E0,-1.783932114E1,1.603988075E1,2.416676053E1
4.151900557E0,-2.800225258E0,-1.795392799E1,1.599408531E1,2.420734510E1
4.156844405E0,-2.790312767E0,-1.806879044E1,1.595094872E1,2.426313661E1
4.161818770E0,-3.096626282E0,-1.820853615E1,1.591368961E1,2.438002051E1
4.166793135E0,-3.720851898E0,-1.834905434E1,1.588381958E1,2.455256114E1
4.171736983E0,-4.508562088E0,-1.849720192E1,1.586907291E1,2.478509807E1
4.176711348E0,-5.488935471E0,-1.865501022E1,1.587267399E1,2.510138639E1
4.181685713E0,-6.837712288E0,-1.882118988E1,1.589492798E1,2.556638874E1
4.186660078E0,-8.432619095E0,-1.899606323E1,1.593378067E1,2.618863970E1
4.191603926E0,-9.958385468E0,-1.917911530E1,1.598411655E1,2.687935800E1
4.196578291E0,-1.020999813E1,-1.937368774E1,1.604056549E1,2.714559964E1
4.201552657E0,-1.013449192E1,-1.957931709E1,1.609700203E1,2.729782150E1
4.206527022E0,-1.007081032E1,-1.979677582E1,1.614858246E1,2.746106824E1
4.211470869E0,-1.002608109E1,-2.002454948E1,1.619182205E1,2.763476045E1
4.216445235E0,-9.979979515E0,-2.026576996E1,1.622564888E1,2.781318221E1
4.221419600E0,-9.943172455E0,-2.051858521E1,1.624922562E1,2.799850622E1
4.226393965E0,-9.915998459E0,-2.078352356E1,1.626398849E1,2.819218329E1
4.231337813E0,-9.898373604E0,-2.105920792E1,1.627334213E1,2.839524084E1
4.236312178E0,-9.890021324E0,-2.135011482E1,1.628236961E1,2.861390370E1
4.241286543E0,-9.891054153E0,-2.165513611E1,1.629535484E1,2.884989535E1
4.246260908E0,-9.901427269E0,-2.197520638E1,1.631802177E1,2.910714331E1
4.251235274E0,-9.920820236E0,-2.231130981E1,1.635828781E1,2.939065838E1
4.256179121E0,-9.949099541E0,-2.266234589E1,1.625203133E1,2.960903620E1
4.261153487E0,-9.988058090E0,-2.303374672E1,1.463310242E1,2.905929247E1
4.266127852E0,-1.003884411E1,-2.342374039E1,1.224338436E1,2.827278666E1
4.271071699E0,-1.010329628E1,-2.382994843E1,9.997033119E0,2.774677835E1
4.276046065E0,-1.018668556E1,-2.425730324E1,7.626142979E0,2.739239639E1
4.281020430E0,-1.029513645E1,-2.470149803E1,5.404109001E0,2.730124967E1
4.285994795E0,-1.043622971E1,-2.515851402E1,3.478955984E0,2.745849328E1
4.290969160E0,-1.061801243E1,-2.562232971E1,1.538846016E0,2.777794116E1
4.295913008E0,-1.084664249E1,-2.608200264E1,-2.901246846E-1,2.824897675E1
4.300887373E0,-1.113166523E1,-2.653442383E1,-2.117333174E0,2.885260332E1
4.305861739E0,-1.147759533E1,-2.696759987E1,-3.961245537E0,2.957495737E1
4.310805586E0,-1.188553429E1,-2.736985779E1,-5.533360481E0,3.034786844E1
4.315779951E0,-1.236174583E1,-2.773704910E1,-6.991598129E0,3.116150024E1
4.320754317E0,-1.290151596E1,-2.805750084E1,-8.391359329E0,3.200136526E1
4.325698164E0,-1.349475288E1,-2.832251930E1,-9.843218803E0,3.288103422E1
4.330672530E0,-1.412803841E1,-2.853056717E1,-1.130478001E1,3.378450508E1
4.335646895E0,-1.318534279E1,-2.867701530E1,-1.270240021E1,3.402316038E1
4.340621260E0,-9.527227402E0,-2.876220703E1,-1.390188599E1,3.333609229E1
4.345565108E0,-5.949582577E0,-2.878879738E1,-1.467315292E1,3.285565102E1
4.350539473E0,-2.931458235E0,-2.876260757E1,-1.426781273E1,3.224052608E1
4.355513838E0,-6.488723755E-1,-2.868989754E1,-1.390059757E1,3.188664092E1
4.360488203E0,1.331091166E0,-2.857886505E1,-1.361902618E1,3.168597806E1
4.365432051E0,3.225599766E0,-2.843852615E1,-1.336467266E1,3.158747757E1
4.370406416E0,4.307605743E0,-2.827576447E1,-1.314179230E1,3.147667435E1
4.375380782E0,5.128629684E0,-2.809936142E1,-1.294704151E1,3.136084882E1
4.380355147E0,5.694897652E0,-2.791545105E1,-1.277491093E1,3.122343056E1
4.385298994E0,5.618111134E0,-2.773012924E1,-1.262201500E1,3.098126052E1
4.390273360E0,5.306188583E0,-2.754511070E1,-1.248325443E1,3.070375225E1
4.395247725E0,5.109792233E0,-2.736400604E1,-1.235752296E1,3.045664422E1
4.400222090E0,4.680277824E0,-2.718801308E1,-1.220578575E1,3.016743710E1
4.405196455E0,3.948878527E0,-2.701784134E1,-1.137700176E1,2.958029008E1
4.410140303E0,3.212480068E0,-2.685416412E1,-1.007163239E1,2.886007515E1
4.415114668E0,2.520264626E0,-2.669489670E1,-8.920853615E0,2.825864244E1
4.420089033E0,1.916320801E0,-2.653981018E1,-7.801199913E0,2.772891144E1
4.425032881E0,1.558034897E0,-2.638832855E1,-6.731535912E0,2.727792023E1
4.430007246E0,1.033385038E0,-2.623785210E1,-5.843379021E0,2.690051757E1
4.434981612E0,7.159126997E-1,-2.608811951E1,-5.119058609E0,2.659524904E1
4.439925459E0,5.759885311E-1,-2.593828773E1,-4.541655540E0,2.633919453E1
4.444899824E0,4.212381840E-1,-2.538139343E1,-4.171603203E0,2.572537361E1
4.449874190E0,2.844069004E-1,-2.410110855E1,-3.962758064E0,2.442637452E1
4.454848555E0,2.791585922E-1,-2.282163811E1,-3.741129875E0,2.312793004E1
4.459792403E0,3.522009850E-1,-2.154928017E1,-3.822982788E0,2.188859791E1
4.464766768E0,4.641058445E-1,-2.030582237E1,-4.060028076E0,2.071293423E1
4.469741133E0,5.555617809E-1,-1.917383003E1,-4.337553978E0,1.966618370E1
4.474715498E0,6.466162205E-1,-1.816369057E1,-4.624458313E0,1.875428970E1
4.479659346E0,8.075740337E-1,-1.719829559E1,-4.902287483E0,1.790156333E1
4.484633711E0,1.019220114E0,-1.623856544E1,-5.011826515E0,1.702492944E1
4.489608076E0,1.235675097E0,-1.536399841E1,-5.037871361E0,1.621602565E1
4.494551924E0,1.419815063E0,-1.458334923E1,-4.992242813E0,1.547941982E1
4.499526289E0,1.607756376E0,-1.372392654E1,-4.948671341E0,1.467720642E1
4.504500655E0,1.793305635E0,-1.288578796E1,-4.915568352E0,1.390763419E1
4.509475020E0,2.010920048E0,-1.214159966E1,-4.784416199E0,1.320427506E1
4.514418867E0,2.270244837E0,-1.144744492E1,-4.611955643E0,1.254863106E1
4.519393233E0,2.566328526E0,-1.074055576E1,-4.398518562E0,1.188665410E1
4.524367598E0,2.833263636E0,-1.004116535E1,-4.217147827E0,1.125329819E1
4.529341963E0,3.090953350E0,-9.355738640E0,-3.938885689E0,1.061125151E1
4.534285811E0,3.326065540E0,-8.720865250E0,-3.622509003E0,1.001193159E1
4.539260176E0,3.479510069E0,-8.104257584E0,-3.385538101E0,9.447107999E0
4.544234541E0,3.516561508E0,-7.493205070E0,-3.182408333E0,8.868035288E0
4.549208907E0,3.480177164E0,-6.955268860E0,-3.013904572E0,8.340924336E0
4.554152754E0,3.289769411E0,-6.650921822E0,-2.842330933E0,7.945828401E0
4.559127119E0,3.039113760E0,-6.432420731E0,-2.678764343E0,7.601843678E0
4.564101485E0,2.841329098E0,-6.171024323E0,-2.547668457E0,7.255708566E0
4.569075850E0,2.611849546E0,-5.842604637E0,-2.361054420E0,6.821463551E0
4.574019698E0,2.443064213E0,-5.498179436E0,-2.184919357E0,6.400969649E0
4.578994063E0,2.328345537E0,-5.176175117E0,-2.082650185E0,6.045776508E0
4.583968428E0,2.173571348E0,-4.911181450E0,-1.945182800E0,5.712079461E0
4.588942793E0,2.114883423E0,-4.699727058E0,-1.825299263E0,5.467347045E0
4.593886641E0,2.119994164E0,-4.455616951E0,-1.721913338E0,5.226077230E0
4.598861006E0,2.131902695E0,-4.177402973E0,-1.629580498E0,4.965001239E0
4.603835371E0,2.192330122E0,-3.835284233E0,-1.596491814E0,4.697286730E0
4.608809737E0,2.237647057E0,-3.568462610E0,-1.529053688E0,4.480959153E0
4.613784102E0,2.316951513E0,-3.317358255E0,-1.474279404E0,4.306579834E0
4.618727949E0,2.340326548E0,-3.028861046E0,-1.371401787E0,4.065940290E0
4.623702315E0,2.342821836E0,-2.735256910E0,-1.259778976E0,3.815427577E0
4.628646162E0,2.340116739E0,-2.506646872E0,-1.092199326E0,3.598933767E0
4.633620528E0,2.259521961E0,-2.289579391E0,-9.306030273E-1,3.348676646E0
4.638594893E0,2.139911413E0,-2.139960766E0,-7.006664276E-1,3.106378338E0
4.643569258E0,2.008567810E0,-1.987388134E0,-5.198602676E-1,2.873031664E0
4.648513106E0,1.854418039E0,-1.909455299E0,-3.778829575E-1,2.688434737E0
4.653487471E0,1.716970921E0,-1.861500740E0,-2.051124573E-1,2.540717471E0
4.658461836E0,1.544150591E0,-1.794190884E0,-8.085155487E-2,2.368556300E0
4.663436201E0,1.450001240E0,-1.774647236E0,1.964569092E-2,2.291781482E0
4.668380049E0,1.420539379E0,-1.705646515E0,1.126003265E-1,2.222575307E0
4.673354414E0,1.390592575E0,-1.568991661E0,2.529659271E-1,2.111746742E0
4.678328780E0,1.417355537E0,-1.369939804E0,2.966079712E-1,1.993391099E0
4.683303145E0,1.483023643E0,-1.231059313E0,3.380155563E-1,1.956813909E0
4.688246992E0,1.567754269E0,-1.111310005E0,3.105764389E-1,1.946617862E0
4.693221358E0,1.678584099E0,-9.904625416E-1,2.729425430E-1,1.968034109E0
4.698195723E0,1.746672392E0,-7.941105366E-1,2.703113556E-1,1.937664630E0
4.703170088E0,1.721195459E0,-6.068489552E-1,2.942047119E-1,1.848603764E0
4.708113936E0,1.682582855E0,-4.846541882E-1,3.547401428E-1,1.786565229E0
4.713088301E0,1.666271448E0,-3.998720646E-1,4.638843536E-1,1.775259671E0
4.718062666E0,1.609450340E0,-3.146803379E-1,5.407752991E-1,1.726786622E0
4.723037032E0,1.502380610E0,-2.152450085E-1,5.595989227E-1,1.617599723E0
4.728008420E0,1.340642929E0,-1.757669449E-1,5.777568817E-1,1.470381072E0
4.732952267E0,1.146408558E0,-2.403852940E-1,6.120185852E-1,1.321591624E0
4.737926633E0,9.926903248E-1,-2.832019329E-1,6.452045441E-1,1.217343961E0
4.742870480E0,8.296961784E-1,-2.581000328E-1,6.954050064E-1,1.112923851E0
4.747844846E0,6.278064251E-1,-2.839689255E-1,6.767301559E-1,9.657861885E-1
4.752819211E0,4.719541073E-1,-3.310015202E-1,5.350790024E-1,7.865190554E-1
4.757793576E0,3.354607821E-1,-3.311905861E-1,5.116510391E-1,6.957067819E-1
4.762737424E0,2.405534983E-1,-3.166291714E-1,3.955068588E-1,5.608437332E-1
4.767711789E0,2.311335802E-1,-2.799880505E-1,3.199911118E-1,4.839528406E-1
4.772686154E0,2.026813030E-1,-2.525308132E-1,2.484788895E-1,4.081584015E-1
4.777660519E0,1.170060635E-1,-1.628704071E-1,9.884548187E-2,2.235791083E-1
4.782604367E0,5.781114101E-2,-5.606389046E-2,5.408287048E-3,8.071268430E-2
4.787578732E0,4.796230793E-2,4.376435280E-2,1.457500458E-2,6.654421324E-2
4.792553097E0,-4.197895527E-2,1.064226627E-1,-1.090431213E-2,1.149213638E-1
4.797527463E0,-1.304843426E-1,1.247594357E-1,7.219314575E-3,1.806742897E-1
4.802471310E0,-2.421865463E-1,1.013793945E-1,7.071781158E-2,2.719064430E-1
4.807445676E0,-4.087116718E-1,-6.680059433E-2,1.407613754E-1,4.374029205E-1
4.812420041E0,-5.668132305E-1,-1.776013374E-1,1.471223831E-1,6.119350202E-1
4.817394406E0,-5.804611444E-1,-2.110292912E-1,1.469516754E-1,6.348726619E-1
4.822338254E0,-4.969720840E-1,-2.046792507E-1,1.912384033E-1,5.704796008E-1
4.827312619E0,-3.350052834E-1,-1.132187843E-1,2.160520554E-1,4.143977843E-1
4.832286984E0,-6.610906124E-2,-2.778100967E-2,1.687526703E-1,1.833566367E-1
4.837261349E0,1.195335388E-1,9.523034096E-2,1.199426651E-1,1.942764207E-1
4.842205197E0,3.107097149E-1,2.290186882E-1,6.716632843E-2,3.917925499E-1
4.847179562E0,5.130540133E-1,3.548347950E-1,4.686069489E-2,6.255622087E-1
4.852153928E0,7.305477858E-1,3.957362175E-1,1.115942001E-1,8.383081096E-1
4.857097775E0,8.580509424E-1,4.474561214E-1,1.200637817E-1,9.751326638E-1
4.862072140E0,8.718674183E-1,5.508384705E-1,2.186307907E-1,1.054217832E0
4.867046506E0,7.559375763E-1,6.073820591E-1,2.492923737E-1,1.001249855E0
4.872020871E0,5.544568300E-1,5.888566971E-1,3.101177216E-1,8.662260602E-1
4.876964719E0,3.066042662E-1,4.865310192E-1,3.094911575E-1,6.530722665E-1
4.881939084E0,5.863010883E-2,3.984715939E-1,2.994394302E-1,5.018775480E-1
4.886913449E0,-1.395632029E-1,3.558282852E-1,2.583131790E-1,4.613213138E-1
4.891887814E0,-3.270288706E-1,2.560026646E-1,2.657308578E-1,4.930498304E-1
4.896831662E0,-4.812263250E-1,1.648936272E-1,2.428293228E-1,5.636796645E-1
4.901806027E0,-6.024377346E-1,6.434631348E-2,1.562681198E-1,6.256927340E-1
4.906780392E0,-6.491343975E-1,-2.990460396E-2,1.480159760E-1,6.664671639E-1
4.911754758E0,-5.832699537E-1,-7.380557060E-2,1.057052612E-1,5.973480589E-1
4.916698605E0,-5.303854942E-1,-1.151421070E-1,1.359329224E-1,5.595035627E-1
4.921672971E0,-4.124255180E-1,-1.666727066E-1,1.059808731E-1,4.572816906E-1
4.926647336E0,-2.701727152E-1,-2.199330330E-1,7.523155212E-2,3.564037338E-1
4.931621701E0,-1.090817451E-1,-2.553288937E-1,1.697425842E-1,3.254292795E-1
4.936565549E0,5.995333195E-2,-2.928385735E-1,2.500810623E-1,3.897298678E-1
4.941539914E0,1.643977165E-1,-3.265080452E-1,3.071537018E-1,4.774699041E-1
4.946514279E0,2.154802084E-1,-3.556962013E-1,3.575258255E-1,5.484306918E-1
4.951488644E0,2.439036369E-1,-3.872485161E-1,4.321250916E-1,6.294302917E-1
4.956432492E0,1.911089420E-1,-4.184234142E-1,5.003976822E-1,6.797048048E-1
4.961406857E0,1.368273497E-1,-4.824757576E-1,4.582338333E-1,6.793252728E-1
4.966381222E0,1.177310944E-2,-5.381028652E-1,3.857936859E-1,6.622160280E-1
4.971355588E0,-1.074337959E-1,-6.259665489E-1,2.754554749E-1,6.922801886E-1
4.976299435E0,-2.568535805E-1,-7.849433422E-1,-1.122474670E-3,8.259001588E-1
4.981273801E0,-2.673926353E-1,-7.865965366E-1,-3.538131714E-3,8.308101175E-1
4.986248166E0,-3.319915533E-1,-8.680474758E-1,-1.253118515E-1,9.377781571E-1
4.991192014E0,-3.535432816E-1,-9.183568954E-1,-3.220176697E-1,1.035406982E0
4.996166379E0,-2.838410139E-1,-9.390494823E-1,-5.152597427E-1,1.108093973E0
5.001140744E0,-2.294611931E-1,-9.998390675E-1,-6.925306320E-1,1.237711306E0
5.006115109E0,-1.705189943E-1,-1.099205494E0,-7.827615738E-1,1.360163640E0
5.011058957E0,-7.818377018E-2,-1.124315262E0,-8.990726471E-1,1.441710489E0
5.016033322E0,-1.543045044E-2,-1.197999716E0,-1.033157349E0,1.582041569E0
5.021007687E0,1.786637306E-2,-1.343071699E0,-1.106702805E0,1.740388432E0
5.025982053E0,-1.669192314E-2,-1.411906242E0,-1.171243668E0,1.834548878E0
5.030925900E0,-5.779039860E-2,-1.484789133E0,-1.302817345E0,1.976175987E0
5.035900265E0,-1.211713552E-1,-1.536723375E0,-1.349045753E0,2.048444696E0
5.040874631E0,-2.614861727E-1,-1.609659672E0,-1.427983284E0,2.167605946E0
5.045848996E0,-3.424870968E-1,-1.755419016E0,-1.494127274E0,2.330495579E0
5.050792844E0,-4.013787508E-1,-1.894501209E0,-1.609097481E0,2.517823353E0
5.055767209E0,-4.598456621E-1,-2.047941685E0,-1.734647751E0,2.722962724E0
5.060741574E0,-4.881687164E-1,-2.168041706E0,-1.810452461E0,2.866435356E0
5.065715939E0,-4.809058905E-1,-2.272703171E0,-1.840125084E0,2.963530074E0
5.070659787E0,-4.488761425E-1,-2.316236734E0,-1.872167587E0,3.011885435E0
5.075634152E0,-4.586045742E-1,-2.375700235E0,-1.904850006E0,3.079403077E0
5.080608517E0,-4.712364674E-1,-2.495570183E0,-1.899053574E0,3.171173099E0
5.085582883E0,-4.802055359E-1,-2.570111990E0,-1.890649796E0,3.226550735E0
5.090526730E0,-4.408599138E-1,-2.650659084E0,-1.807212830E0,3.238266397E0
5.095501096E0,-3.970599174E-1,-2.826906681E0,-1.640443802E0,3.292432813E0
5.100475461E0,-4.207038879E-1,-2.930254221E0,-1.563678741E0,3.347905729E0
5.105419308E0,-5.114345551E-1,-3.011075735E0,-1.482852936E0,3.395142886E0
5.110393674E0,-5.790747404E-1,-3.112722397E0,-1.433466911E0,3.475513726E0
5.115368039E0,-7.119274139E-1,-3.247323751E0,-1.430375099E0,3.619105568E0
5.120342404E0,-8.641868830E-1,-3.324535608E0,-1.434023857E0,3.722335343E0
5.125316769E0,-9.557021856E-1,-3.396360397E0,-1.459331512E0,3.818151265E0
5.130260617E0,-1.022334814E0,-3.401115894E0,-1.546278954E0,3.873465683E0
5.135234982E0,-1.125942469E0,-3.429302692E0,-1.632859230E0,3.961577043E0
5.140209347E0,-1.229571223E0,-3.510931492E0,-1.769270897E0,4.119320920E0
5.145153195E0,-1.350393295E0,-3.551179647E0,-1.896383286E0,4.246258177E0
5.150127560E0,-1.507305861E0,-3.641683340E0,-2.006625175E0,4.422711058E0
5.155101926E0,-1.660725594E0,-3.726950169E0,-2.125211716E0,4.600509960E0
5.160076291E0,-1.789055705E0,-3.854734421E0,-2.170436859E0,4.771843871E0
5.165020139E0,-1.865854621E0,-3.971879005E0,-2.297363281E0,4.953293283E0
5.169994504E0,-1.970004559E0,-3.992971420E0,-2.339682579E0,5.029796546E0
5.174968869E0,-2.331289530E0,-4.100043297E0,-2.130161285E0,5.175215262E0
5.179943234E0,-2.328581572E0,-4.505270958E0,-2.487549782E0,5.648686790E0
5.184887082E0,-2.350772858E0,-4.848100662E0,-2.210501671E0,5.823790063E0
5.189861447E0,-2.451292515E0,-4.888287544E0,-1.934014320E0,5.800396667E0
5.194835812E0,-2.744812250E0,-4.872112274E0,-1.646928787E0,5.829566599E0
5.199810178E0,-3.264508724E0,-4.821886063E0,-1.339073181E0,5.975007899E0
5.204754025E0,-3.117214918E0,-5.048473358E0,-1.042023659E0,6.024112001E0
5.209728390E0,-2.557990551E0,-5.149337769E0,-9.217596054E-1,5.823112216E0
5.214702756E0,-2.435307264E0,-5.022985458E0,-5.420913696E-1,5.608472826E0
5.219677121E0,-2.549965143E0,-5.003251076E0,-1.772689819E-1,5.618386588E0
5.224620969E0,-2.509207964E0,-5.273119926E0,1.865549088E-1,5.842663870E0
5.229595334E0,-2.362695217E0,-5.529123783E0,3.547039032E-1,6.023234460E0
5.234569699E0,-2.378453493E0,-5.642561913E0,4.052038193E-1,6.136752895E0
5.239513547E0,-2.511025190E0,-5.875864983E0,5.134592056E-1,6.410513018E0
5.244487912E0,-2.574326754E0,-6.198623180E0,6.148443222E-1,6.740038658E0
5.249462277E0,-2.669387579E0,-6.452409267E0,6.621665955E-1,7.014105788E0
5.254436642E0,-2.788439274E0,-6.698060989E0,7.768726349E-1,7.296776390E0
5.259380490E0,-2.939996719E0,-6.864289284E0,8.618927002E-1,7.516974598E0
5.264354855E0,-3.166917086E0,-6.971282005E0,1.041688919E0,7.727435049E0
5.269329221E0,-3.376185417E0,-7.116951942E0,1.083583832E0,7.951338682E0
5.274303586E0,-3.626976967E0,-7.280750275E0,1.215778351E0,8.224500196E0
5.279247433E0,-3.853833914E0,-7.498352528E0,1.290481567E0,8.528931301E0
5.284221799E0,-4.078032970E0,-7.718657017E0,1.311320305E0,8.827659939E0
5.289196164E0,-4.267385006E0,-7.833297729E0,1.338543892E0,9.020134581E0
5.294170529E0,-4.405031204E0,-7.961455345E0,1.368332863E0,9.201163293E0
5.299114377E0,-4.580426693E0,-8.147447586E0,1.321916580E0,9.439739101E0
5.304088742E0,-4.741892815E0,-8.408220291E0,1.292171478E0,9.739272204E0
5.309063107E0,-4.860031605E0,-8.638683319E0,1.269462585E0,9.992912085E0
5.314037472E0,-4.978896141E0,-8.826452255E0,1.161410332E0,1.020022255E1
5.318981320E0,-5.118130684E0,-9.010200500E0,1.048955917E0,1.041533885E1
5.323955685E0,-5.224063396E0,-9.201070786E0,9.883422852E-1,1.062672868E1
5.328930051E0,-5.246175766E0,-9.431173325E0,8.792748451E-1,1.082785827E1
5.333904416E0,-5.247602463E0,-9.711415291E0,8.673524857E-1,1.107254347E1
5.338848264E0,-5.196324348E0,-9.922437668E0,8.815937042E-1,1.123537999E1
5.343822629E0,-5.076004028E0,-1.011754894E1,9.516148567E-1,1.135940951E1
5.348796994E0,-4.844378948E0,-1.020780659E1,1.099086285E0,1.135232634E1
5.353740842E0,-4.670683861E0,-1.027517414E1,1.267140865E0,1.135782274E1
5.358715207E0,-4.522213459E0,-1.031874657E1,1.438440800E0,1.135764312E1
5.363689572E0,-4.331899643E0,-1.040586758E1,1.595449448E0,1.138388745E1
5.368663937E0,-4.160082817E0,-1.049321747E1,1.738017559E0,1.142079712E1
5.373638303E0,-3.952053070E0,-1.056714630E1,1.838175297E0,1.143075644E1
5.378582150E0,-3.779981375E0,-1.061276436E1,1.921126842E0,1.142846249E1
5.383556515E0,-3.719321251E0,-1.069119549E1,1.957811356E0,1.148773419E1
5.388530881E0,-3.722786903E0,-1.083412743E1,1.946441650E0,1.162007291E1
5.393474728E0,-3.837008953E0,-1.101190853E1,1.899216652E0,1.181489700E1
5.398449094E0,-3.993738651E0,-1.126065445E1,1.888444901E0,1.209621888E1
5.403423459E0,-4.187370777E0,-1.153570747E1,1.955063343E0,1.242694225E1
5.408397824E0,-4.329634190E0,-1.179398727E1,1.914461136E0,1.270862028E1
5.413341672E0,-4.428245544E0,-1.203919792E1,1.916392326E0,1.297012740E1
5.418316037E0,-4.511711597E0,-1.225120163E1,1.933590889E0,1.319796411E1
5.423290402E0,-4.497957230E0,-1.255800343E1,1.868452072E0,1.346945368E1
5.428264767E0,-4.495727539E0,-1.286209679E1,1.926719189E0,1.376071752E1
5.433208615E0,-4.538927078E0,-1.310850620E1,2.077882290E0,1.402684529E1
5.438182980E0,-4.541562557E0,-1.330441284E1,2.188248158E0,1.422749527E1
5.443157346E0,-4.573967934E0,-1.344137955E1,2.280095100E0,1.438021907E1
5.448131711E0,-4.674439907E0,-1.360273170E1,2.320526123E0,1.456947287E1
5.453106076E0,-4.825715065E0,-1.380356026E1,2.362212181E0,1.481235457E1
5.458049924E0,-4.920519352E0,-1.398944187E1,2.374799252E0,1.501851078E1
5.463024289E0,-4.965047836E0,-1.417787838E1,2.338655949E0,1.520306703E1
5.467998654E0,-4.999327183E0,-1.437443829E1,2.253056049E0,1.538486301E1
5.472973019E0,-4.968628407E0,-1.460506439E1,2.125131130E0,1.557277613E1
5.477916867E0,-4.857761383E0,-1.482787704E1,2.007697821E0,1.573196217E1
5.482891232E0,-4.668937206E0,-1.500655365E1,1.920408249E0,1.583299071E1
5.487835080E0,-4.444244862E0,-1.518402290E1,1.885761261E0,1.593304614E1
5.492809445E0,-4.164507866E0,-1.538601208E1,1.943788767E0,1.605773359E1
5.497783810E0,-3.827626228E0,-1.552982521E1,2.037996531E0,1.612388363E1
5.502758176E0,-3.419876099E0,-1.567236328E1,2.155716181E0,1.618535250E1
5.507702023E0,-2.991496086E0,-1.580787945E1,2.159493208E0,1.623272967E1
5.512676389E0,-2.599656105E0,-1.586522865E1,2.136120319E0,1.621809798E1
5.517650754E0,-2.187946320E0,-1.601506615E1,2.107299089E0,1.630061846E1
5.522625119E0,-1.828392029E0,-1.616734314E1,1.981957674E0,1.639067289E1
5.527568967E0,-1.558648109E0,-1.634513092E1,1.837609291E0,1.652178854E1
5.532543332E0,-1.335309982E0,-1.652444458E1,1.703477263E0,1.666559799E1
5.537517697E0,-1.164452553E0,-1.674708939E1,1.561038017E0,1.685994639E1
5.542461545E0,-1.069553375E0,-1.690951157E1,1.403043866E0,1.700129577E1
5.547435910E0,-1.064976692E0,-1.717847061E1,1.259457350E0,1.725746971E1
5.552410275E0,-1.160608292E0,-1.728073311E1,1.161452889E0,1.735856334E1
5.557384640E0,-1.253133774E0,-1.740358925E1,1.080555320E0,1.748207261E1
5.562328488E0,-1.257507324E0,-1.757945824E1,1.001479387E0,1.765280821E1
5.567302853E0,-1.149873734E0,-1.773941422E1,8.401203156E-1,1.779648360E1
5.572277219E0,-1.005202293E0,-1.790812302E1,6.558568478E-1,1.794829936E1
5.577251584E0,-8.243017197E-1,-1.814870453E1,5.410956144E-1,1.817547066E1
5.582195431E0,-6.493453979E-1,-1.827792168E1,5.683116913E-1,1.829827993E1
5.587169797E0,-4.846506119E-1,-1.835397720E1,6.399506330E-1,1.837152422E1
5.592144162E0,-3.124694824E-1,-1.841079330E1,6.696257591E-1,1.842561657E1
5.597118527E0,-1.120462418E-1,-1.850398636E1,6.052448750E-1,1.851422121E1
5.602062375E0,-6.292343140E-3,-1.866954041E1,4.100370407E-1,1.867404372E1
5.607036740E0,-9.458637238E-2,-1.880651093E1,2.309601307E-1,1.880816691E1
5.612011105E0,-2.594642639E-1,-1.893095016E1,1.893050671E-1,1.893367456E1
5.616985471E0,-3.645639420E-1,-1.910556030E1,2.455213070E-1,1.911061543E1
5.621929318E0,-5.076704025E-1,-1.926874924E1,3.263084888E-1,1.927819762E1
5.626903683E0,-5.809555054E-1,-1.946243286E1,5.410075188E-1,1.947861626E1
5.631878049E0,-6.373395920E-1,-1.957931137E1,8.205552101E-1,1.960685968E1
5.636852414E0,-6.162557602E-1,-1.953694153E1,1.114090443E0,1.957838229E1
5.641796262E0,-4.649724960E-1,-1.932047844E1,1.410257816E0,1.937745891E1
5.646770627E0,-3.009920120E-1,-1.909712410E1,1.692993164E0,1.917438320E1
5.651744992E0,-1.852579117E-1,-1.899487305E1,1.818007946E0,1.908257518E1
5.656719357E0,-9.428787231E-2,-1.884590530E1,1.931632042E0,1.894487369E1
5.661663205E0,3.034639359E-2,-1.873655128E1,2.076046467E0,1.885123985E1
5.666637570E0,1.834840775E-1,-1.863137245E1,2.295791149E0,1.877318201E1
5.671611935E0,3.058161736E-1,-1.852034378E1,2.515162945E0,1.869285163E1
5.676586301E0,4.300589561E-1,-1.845472527E1,2.715604782E0,1.865841217E1
5.681530148E0,5.197734833E-1,-1.824012756E1,2.953615189E0,1.848502801E1
5.686504514E0,4.562320709E-1,-1.800051117E1,3.197179794E0,1.828793342E1
5.691478879E0,3.539805412E-1,-1.786234093E1,3.436594963E0,1.819336996E1
5.696422726E0,2.537832260E-1,-1.771987343E1,3.742228985E0,1.811249839E1
5.701397092E0,1.718659401E-1,-1.753588676E1,4.222011089E0,1.803780031E1
5.706371457E0,1.639785767E-1,-1.718425369E1,4.801087379E0,1.784309121E1
5.711345822E0,2.693858147E-1,-1.677200890E1,5.398649216E0,1.762152844E1
5.716289670E0,3.121857643E-1,-1.634535789E1,5.832015991E0,1.735743631E1
5.721264035E0,3.254580498E-1,-1.600803566E1,6.094961166E0,1.713218259E1
5.726238400E0,3.235244751E-1,-1.566830444E1,6.416238308E0,1.693424183E1
5.731212765E0,3.186545372E-1,-1.526910496E1,6.817955971E0,1.672517954E1
5.736156613E0,4.070811272E-1,-1.487876797E1,7.218327522E0,1.654230043E1
5.741130978E0,5.785708427E-1,-1.446591949E1,7.459889889E0,1.628642159E1
5.746105344E0,7.371602058E-1,-1.407318974E1,7.639381409E0,1.602991649E1
5.751079709E0,8.483853340E-1,-1.378580666E1,7.796524525E0,1.586045452E1
5.756023556E0,1.076556683E0,-1.340922070E1,7.955392838E0,1.562864195E1
5.760997922E0,1.321231842E0,-1.296469688E1,8.129371643E0,1.535954759E1
5.765972287E0,1.658915043E0,-1.245915031E1,8.180195808E0,1.499660059E1
5.770916135E0,2.054406166E0,-1.186682892E1,8.136819839E0,1.453444359E1
5.775890500E0,2.402441978E0,-1.141379738E1,7.927405834E0,1.410284586E1
5.780864865E0,2.695654392E0,-1.109670258E1,7.623939037E0,1.373054286E1
5.785839230E0,2.890816689E0,-1.082211685E1,7.310633659E0,1.337611299E1
5.790813596E0,2.979868412E0,-1.049983215E1,7.070242882E0,1.300440023E1
5.795757443E0,3.052661419E0,-1.017377090E1,6.888065815E0,1.265977120E1
5.800731808E0,3.100856781E0,-9.781367302E0,6.807841778E0,1.231410446E1
5.805706174E0,3.099466801E0,-9.342344284E0,6.698729038E0,1.190626146E1
5.810650021E0,3.079235077E0,-8.979918480E0,6.544110298E0,1.153022134E1
5.815624387E0,2.987798691E0,-8.729583740E0,6.347822189E0,1.119943837E1
5.820598752E0,2.839520454E0,-8.502653122E0,6.102572918E0,1.084432491E1
5.825573117E0,2.605433941E0,-8.267555237E0,5.854336262E0,1.046011514E1
5.830516965E0,2.445797443E0,-8.065507889E0,5.675190449E0,1.016081342E1
5.835491330E0,2.379562855E0,-7.874542236E0,5.595057964E0,9.948638522E0
5.840465695E0,2.265903950E0,-7.597856522E0,5.527853012E0,9.665345486E0
5.845440060E0,2.240780354E0,-7.309662819E0,5.548995495E0,9.446884043E0
5.850383908E0,2.248593807E0,-7.058050156E0,5.595952988E0,9.283691935E0
5.855358273E0,2.263584614E0,-6.744336605E0,5.654246807E0,9.087375776E0
5.860332639E0,2.281690121E0,-6.441206455E0,5.721844196E0,8.912617540E0
5.865307004E0,2.225656033E0,-6.145159721E0,5.806867599E0,8.742782400E0
5.870250851E0,2.163757801E0,-5.878508091E0,5.875139713E0,8.588129706E0
5.875225217E0,2.115324974E0,-5.605840206E0,5.954540253E0,8.447283219E0
5.880199582E0,2.079579353E0,-5.337935448E0,6.043759823E0,8.327378815E0
5.885173947E0,2.000057220E0,-5.112527370E0,6.119782448E0,8.221307816E0
5.890117795E0,1.885107040E0,-4.891697407E0,6.226981163E0,8.139878775E0
5.895092160E0,1.825155735E0,-4.654337883E0,6.394926548E0,8.117212584E0
5.900066525E0,1.773798943E0,-4.416477203E0,6.555735588E0,8.101191436E0
5.905040890E0,1.773667812E0,-4.143623829E0,6.737956047E0,8.106513902E0
5.909984738E0,1.810305119E0,-3.891255856E0,6.841670513E0,8.076356367E0
5.914959103E0,1.910365582E0,-3.677823544E0,6.884006023E0,8.035261141E0
5.919933469E0,1.977209091E0,-3.491949558E0,6.975711823E0,8.047584913E0
5.924907834E0,2.056529522E0,-3.383919716E0,6.995520592E0,8.038503260E0
5.929851681E0,2.218425274E0,-3.209548950E0,6.918526649E0,7.942834894E0
5.934826047E0,2.412565708E0,-2.979605675E0,6.972256660E0,7.956813823E0
5.939800412E0,2.638663769E0,-2.739041328E0,6.993718147E0,7.960966487E0
5.944744260E0,2.819454670E0,-2.528220654E0,6.944393158E0,7.909855918E0
5.949718625E0,2.949171543E0,-2.314612865E0,6.890751362E0,7.844584109E0
5.954692990E0,3.122625828E0,-2.130869865E0,6.797565460E0,7.778064967E0
5.959667355E0,3.206519127E0,-1.971838951E0,6.690409184E0,7.676684753E0
5.964611203E0,3.220536232E0,-1.728508949E0,6.555563450E0,7.505665124E0
5.969585568E0,3.228635311E0,-1.523288250E0,6.420107365E0,7.345901690E0
5.974559933E0,3.178863525E0,-1.430024147E0,6.315244675E0,7.213352735E0
5.979534299E0,3.034330845E0,-1.226086617E0,6.076620579E0,6.901867119E0
5.984508664E0,3.050358772E0,-1.233689785E0,6.086249352E0,6.918750631E0
5.989452512E0,2.968558311E0,-1.181271553E0,5.934070110E0,6.739505101E0
5.994426877E0,2.941997051E0,-1.142524242E0,5.798862457E0,6.602084072E0
5.999401242E0,2.926486969E0,-1.110041142E0,5.709972382E0,6.511551421E0
6.004345090E0,2.932714462E0,-1.133448601E0,5.598522186E0,6.420978938E0
6.009319455E0,2.953786373E0,-1.133885860E0,5.483954906E0,6.331217300E0
6.014293820E0,3.004842758E0,-1.123204231E0,5.400119781E0,6.281079637E0
6.019268185E0,3.079414845E0,-1.075021744E0,5.318600178E0,6.239068471E0
6.024212033E0,3.128005505E0,-9.696316719E-1,5.235463142E0,6.175328196E0
6.029186398E0,3.124062061E0,-8.829288483E-1,5.200813770E0,6.130888271E0
6.034160764E0,3.175447941E0,-8.703198433E-1,5.096666336E0,6.067695938E0
6.039104611E0,3.213337421E0,-8.203792572E-1,5.021280766E0,6.017625781E0
6.044078976E0,3.186927795E0,-7.928776741E-1,4.972862244E0,5.959406235E0
6.049053342E0,3.092648029E0,-7.751526833E-1,4.923887730E0,5.866004082E0
6.054027707E0,2.930632591E0,-8.032526970E-1,4.881375313E0,5.749925845E0
6.058971555E0,2.771446705E0,-8.514876366E-1,4.787190914E0,5.596708397E0
6.063945920E0,2.611555576E0,-8.974299431E-1,4.687202454E0,5.440171861E0
6.068920285E0,2.466414928E0,-9.483246803E-1,4.583604813E0,5.290742422E0
6.073894650E0,2.366818905E0,-1.033049107E0,4.482646465E0,5.173310499E0
6.078838498E0,2.259079933E0,-1.090218067E0,4.384345531E0,5.051188307E0
6.083812863E0,2.206715107E0,-1.117041588E0,4.252840996E0,4.919759141E0
6.088787228E0,2.166819096E0,-1.176894665E0,4.150678635E0,4.827869010E0
6.093761594E0,2.109452248E0,-1.263659477E0,4.053389549E0,4.740948312E0
6.098705441E0,2.137539864E0,-1.305544853E0,3.960464954E0,4.686022480E0
6.103679806E0,2.177902222E0,-1.333082199E0,3.863948345E0,4.631464461E0
6.108654172E0,2.186690331E0,-1.301189899E0,3.813516617E0,4.584497654E0
6.113628537E0,2.246169567E0,-1.273731232E0,3.829192162E0,4.618482606E0
6.118572385E0,2.233982086E0,-1.274968147E0,3.755871773E0,4.552229400E0
6.123546750E0,2.194367886E0,-1.290179253E0,3.675163746E0,4.470642178E0
6.128521115E0,2.152143478E0,-1.384871483E0,3.686709881E0,4.487919376E0
6.133495480E0,2.108447552E0,-1.491514206E0,3.640131950E0,4.463264088E0
6.138439328E0,2.050045967E0,-1.514443874E0,3.564106464E0,4.381675890E0
6.143413693E0,1.987045288E0,-1.583652973E0,3.467398167E0,4.298738857E0
6.148388058E0,1.847346783E0,-1.691357136E0,3.290498734E0,4.135306641E0
6.153362424E0,1.768378258E0,-1.850213051E0,3.214561939E0,4.108997257E0
6.158306271E0,1.696690559E0,-2.012304306E0,3.149732590E0,4.104746382E0
6.163280637E0,1.635039806E0,-2.127725124E0,2.985673428E0,4.014326244E0
6.168255002E0,1.586000919E0,-2.247219086E0,2.881292820E0,3.983370539E0
6.173229367E0,1.531511307E0,-2.382695198E0,2.840566158E0,4.011431090E0
6.178173215E0,1.584837437E0,-2.483882427E0,2.804483414E0,4.067740015E0
6.183147580E0,1.693001270E0,-2.513916969E0,2.777975559E0,4.111347715E0
6.188121945E0,1.823675632E0,-2.392384052E0,2.801403046E0,4.110614710E0
6.193065793E0,1.912000656E0,-2.307830811E0,2.879089832E0,4.155837800E0
6.198040158E0,1.947109222E0,-2.314793110E0,2.999220848E0,4.259674537E0
6.203014523E0,1.891633511E0,-2.357292175E0,3.064640999E0,4.304315066E0
6.207988889E0,1.736176968E0,-2.470378876E0,3.103240490E0,4.329801819E0
6.212932736E0,1.583112717E0,-2.616493225E0,3.196387291E0,4.423705956E0
6.217907101E0,1.442451477E0,-2.772950649E0,3.259794235E0,4.516213018E0
6.222881467E0,1.248239040E0,-2.951200962E0,3.336353779E0,4.625899303E0
6.227855832E0,1.157803535E0,-3.122461796E0,3.453372955E0,4.797505754E0
6.232799680E0,1.111660480E0,-3.319834709E0,3.532258987E0,4.973323343E0
6.237774045E0,1.115351200E0,-3.521001339E0,3.585581303E0,5.147606435E0
6.242748410E0,1.151143074E0,-3.716728687E0,3.612554550E0,5.309402310E0
6.247722775E0,1.277877808E0,-3.879339218E0,3.587761879E0,5.436384806E0
6.252666623E0,1.401346207E0,-4.029146194E0,3.579607487E0,5.568786224E0
6.257640988E0,1.558811665E0,-4.206906796E0,3.554661274E0,5.723947533E0
6.262615353E0,1.752322674E0,-4.343291283E0,3.604467392E0,5.909906860E0
6.267559201E0,1.959531784E0,-4.483360291E0,3.681881428E0,6.123441447E0
6.272533566E0,2.114377022E0,-4.605844498E0,3.690231323E0,6.269146748E0
6.277507931E0,2.180096626E0,-4.744272232E0,3.723610878E0,6.412972656E0
6.282482297E0,2.196354389E0,-4.987666607E0,3.818157673E0,6.654255691E0
6.287426144E0,2.216216087E0,-5.190026283E0,4.035893917E0,6.938041963E0
6.292400510E0,2.247923851E0,-5.382750034E0,4.264234543E0,7.225707980E0
6.297374875E0,2.299104214E0,-5.560156822E0,4.509531498E0,7.519115533E0
6.302349240E0,2.324730396E0,-5.760705948E0,4.698093891E0,7.788593624E0
6.307293088E0,2.306431770E0,-5.944881916E0,4.893533230E0,8.037904950E0
6.312267453E0,2.336119175E0,-6.188495159E0,5.093892097E0,8.348812001E0
6.317241818E0,2.410719872E0,-6.438681126E0,5.182691574E0,8.609789596E0
6.322216183E0,2.511845589E0,-6.605565071E0,5.216029644E0,8.783497220E0
6.327160031E0,2.579216480E0,-6.847937107E0,5.138312817E0,8.941412577E0
6.332134396E0,2.610294342E0,-7.054750443E0,5.079768181E0,9.076738684E0
6.337108762E0,2.677955151E0,-7.249113083E0,5.095564365E0,9.256665732E0
6.342083127E0,2.755408764E0,-7.428459167E0,5.097241402E0,9.421048401E0
6.347026974E0,2.856024265E0,-7.587949753E0,5.137262344E0,9.598193603E0
6.352001340E0,2.854162693E0,-7.689325333E0,5.191915035E0,9.707108245E0
6.356975705E0,2.841657639E0,-7.815560341E0,5.274145126E0,9.847568654E0
6.361950070E0,2.776124001E0,-8.009682655E0,5.355519772E0,1.002713682E1
6.366893918E0,2.649509907E0,-8.233338356E0,5.341433525E0,1.016556321E1
6.371868283E0,2.435121536E0,-8.490663528E0,5.291018009E0,1.029640984E1
6.376842648E0,2.176213264E0,-8.781688690E0,5.252495766E0,1.046148518E1
6.381786496E0,1.887603760E0,-9.116989136E0,5.200877666E0,1.066450502E1
6.386760861E0,1.640078545E0,-9.374842644E0,5.110092640E0,1.080234137E1
6.391735226E0,1.450143337E0,-9.687157631E0,4.919269562E0,1.096098315E1
6.396709592E0,1.318084240E0,-1.003740311E1,4.744126797E0,1.118005126E1
6.401653439E0,1.249610424E0,-1.037300110E1,4.530212879E0,1.138786665E1
6.406627805E0,1.279631615E0,-1.065498924E1,4.373775005E0,1.158862203E1
6.411602170E0,1.398418903E0,-1.086294937E1,4.265584469E0,1.175391234E1
6.416576535E0,1.627130032E0,-1.102609634E1,4.146433353E0,1.189181493E1
6.421520383E0,1.872062683E0,-1.129283142E1,4.042372227E0,1.213974602E1
6.426494748E0,2.115018368E0,-1.152289391E1,3.949975014E0,1.236336076E1
6.431469113E0,2.384008408E0,-1.165793991E1,3.907460690E0,1.252434861E1
6.436443478E0,2.679332256E0,-1.181223106E1,3.844827652E0,1.270788431E1
6.441387326E0,2.949572563E0,-1.200209045E1,3.745965004E0,1.291442633E1
6.446361691E0,3.084569454E0,-1.219040775E1,3.616225719E0,1.308425383E1
6.451336056E0,3.035961628E0,-1.242068672E1,3.505802155E0,1.325824915E1
6.456310422E0,2.851289749E0,-1.278853512E1,3.492609024E0,1.356004430E1
6.461254269E0,2.668773651E0,-1.319766617E1,3.556543827E0,1.392658426E1
6.466228635E0,2.433463097E0,-1.362220192E1,3.598261356E0,1.429802828E1
6.471203000E0,2.139453411E0,-1.403356171E1,3.611587048E0,1.464792395E1
6.476177365E0,1.848270893E0,-1.446970367E1,3.646241665E0,1.503607356E1
6.481124002E0,1.453271866E0,-1.497706032E1,3.903226852E0,1.554540172E1
6.486098367E0,9.728136063E-1,-1.552894020E1,4.305748940E0,1.614415758E1
6.491072732E0,4.076137543E-1,-1.617744827E1,4.756212711E0,1.686705490E1
6.496047097E0,-1.429386139E-1,-1.692906380E1,5.309782505E0,1.774281327E1
6.500990945E0,-8.253498077E-1,-1.778589630E1,5.930099964E0,1.876660319E1
6.505965310E0,-1.571398735E0,-1.864364243E1,6.697989464E0,1.987253783E1
6.510939676E0,-2.384186745E0,-1.960214806E1,7.651598930E0,2.117724064E1
6.515914041E0,-3.150714874E0,-1.994027519E1,8.657703400E0,2.196582362E1
6.520857888E0,-3.982258797E0,-2.004693031E1,9.756546974E0,2.264791401E1
6.525832254E0,-4.799701691E0,-2.015834808E1,1.087725830E1,2.340322375E1
6.530806619E0,-5.619577408E0,-2.029323006E1,1.201976967E1,2.424602440E1
6.535750467E0,-6.429579735E0,-2.043416405E1,1.298673534E1,2.505094511E1
6.540724832E0,-7.139994621E0,-2.059024811E1,1.324674416E1,2.550321688E1
6.545699197E0,-7.877609253E0,-2.076121330E1,1.333148003E1,2.590005917E1
6.550673562E0,-8.599275589E0,-2.094767570E1,1.341948032E1,2.632176115E1
6.555617410E0,-9.280493736E0,-2.114864159E1,1.351482010E1,2.675897919E1
6.560591775E0,-1.001371288E1,-2.136726570E1,1.360811043E1,2.723995519E1
6.565566140E0,-1.072676849E1,-2.160252762E1,1.370754051E1,2.774219582E1
6.570540506E0,-1.077420902E1,-2.185439491E1,1.381750393E1,2.801109730E1
6.575514871E0,-1.071192932E1,-2.212274551E1,1.394281387E1,2.825886335E1
6.580458719E0,-1.066255951E1,-2.240636444E1,1.408820343E1,2.853441464E1
6.585433084E0,-1.061460876E1,-2.270981216E1,1.426162815E1,2.884093489E1
6.590407449E0,-1.056679249E1,-2.303210831E1,1.446772957E1,2.917962158E1
6.595351297E0,-1.052560806E1,-2.337039566E1,1.470631409E1,2.955062592E1
6.600325662E0,-1.049546051E1,-2.372770309E1,1.497922325E1,2.995890043E1
6.605300027E0,-1.048148727E1,-2.409966469E1,1.483921623E1,3.018042001E1
6.610274392E0,-1.048766899E1,-2.448357010E1,1.363997650E1,2.992466148E1
6.615218240E0,-1.051722050E1,-2.487355042E1,1.217721367E1,2.962414505E1
6.620192605E0,-1.057441235E1,-2.527054024E1,1.089589024E1,2.948116050E1
6.625166970E0,-1.066217518E1,-2.566796494E1,9.591707230E0,2.940284427E1
6.630110818E0,-1.078207111E1,-2.605962372E1,8.411761284E0,2.942982796E1
6.635085183E0,-1.093880653E1,-2.644733810E1,7.305456638E0,2.953792271E1
6.640059549E0,-1.113482475E1,-2.682485580E1,6.009511948E0,2.965925564E1
6.645033914E0,-1.137329292E1,-2.718752861E1,4.616949081E0,2.983001379E1
6.649977761E0,-1.165626621E1,-2.752784348E1,3.235187531E0,3.006854082E1
6.654952127E0,-1.199185562E1,-2.784425926E1,1.818288565E0,3.037126188E1
6.659926492E0,-1.238176918E1,-2.812758255E1,2.472698689E-2,3.073222608E1
6.664900857E0,-1.282695770E1,-2.837156296E1,-1.821247101E0,3.118963561E1
6.669844705E0,-1.324223423E1,-2.856943703E1,-3.464597940E0,3.167921935E1
6.674819070E0,-1.219767761E1,-2.871973228E1,-5.220711708E0,3.163640612E1
6.679793435E0,-9.987998962E0,-2.881904602E1,-7.441002846E0,3.139531908E1
6.684767801E0,-8.176868439E0,-2.886822128E1,-9.765415192E0,3.155310938E1
6.689711648E0,-6.729986191E0,-2.886985207E1,-1.196488667E1,3.196747699E1
6.694686013E0,-5.478353977E0,-2.882933617E1,-1.350249958E1,3.230263892E1
6.699660379E0,-4.513188839E0,-2.875215530E1,-1.407269287E1,3.232794446E1
6.704634744E0,-3.764541626E0,-2.864521980E1,-1.372415924E1,3.198551138E1
6.709578592E0,-3.120324373E0,-2.851510620E1,-1.340332127E1,3.166222871E1
6.714552957E0,-2.204496145E0,-2.836528015E1,-1.315821743E1,3.134625348E1
6.719527322E0,-1.021637082E0,-2.819962883E1,-1.292404842E1,3.103697531E1
6.724501687E0,2.546617985E-1,-2.802133179E1,-1.271484756E1,3.077218283E1
6.729445535E0,1.781177998E0,-2.783468437E1,-1.252785873E1,3.057596268E1
6.734419900E0,3.661547899E0,-2.764062309E1,-1.235843849E1,3.049822913E1
6.739394265E0,5.577044487E0,-2.744283295E1,-1.220636559E1,3.054845113E1
6.744368631E0,7.470074654E0,-2.724444199E1,-1.207127094E1,3.072095729E1
6.749312478E0,9.293636322E0,-2.704955673E1,-1.195348167E1,3.099896643E1
6.754286844E0,1.093482876E1,-2.685841751E1,-1.185042286E1,3.132694676E1
6.759261209E0,1.215110207E1,-2.667367554E1,-1.176065731E1,3.158238921E1
6.764205056E0,1.288227177E1,-2.649738693E1,-1.168262196E1,3.169460673E1
6.769179422E0,1.335999298E1,-2.631476402E1,-1.161451244E1,3.171518749E1
6.774153787E0,1.355895329E1,-2.531985855E1,-1.155617046E1,3.095941742E1
6.779128152E0,1.353579521E1,-2.350601959E1,-1.150644684E1,2.946436879E1
6.784072000E0,1.330896473E1,-2.206838799E1,-1.143538380E1,2.819415353E1
6.789046365E0,1.283783340E1,-2.078445053E1,-1.088544655E1,2.674502378E1
6.794020730E0,1.224301147E1,-1.946602058E1,-1.010205841E1,2.511710317E1
6.798995095E0,1.149424362E1,-1.825870132E1,-9.438573837E0,2.354961755E1
6.803938943E0,1.061936951E1,-1.723273277E1,-8.865078926E0,2.209813820E1
6.808913308E0,9.665334702E0,-1.633192444E1,-8.362992287E0,2.073861352E1
6.813887674E0,8.739705086E0,-1.558530617E1,-7.850479126E0,1.951702426E1
6.818862039E0,7.990526199E0,-1.488316917E1,-7.345770836E0,1.842057499E1
6.823805886E0,7.414463043E0,-1.404471970E1,-6.781830788E0,1.726909501E1
6.828780252E0,6.957744598E0,-1.320760059E1,-6.184011459E0,1.615837000E1
6.833754617E0,6.588842869E0,-1.256369114E1,-5.585325241E0,1.524647643E1
6.838728982E0,6.335142136E0,-1.184858704E1,-5.109138489E0,1.437450301E1
6.843672830E0,6.193137646E0,-1.106033134E1,-4.558915138E0,1.347106494E1
6.848647195E0,6.099321842E0,-1.044605541E1,-3.949154854E0,1.272468564E1
6.853621560E0,5.994853497E0,-9.817012787E0,-3.400982857E0,1.199494447E1
6.858595926E0,5.871207237E0,-9.119514465E0,-3.002040863E0,1.125383792E1
6.863539773E0,5.784063339E0,-8.482208252E0,-2.511187553E0,1.056926244E1
6.868514138E0,5.635052681E0,-7.891582012E0,-2.064413071E0,9.914266826E0
6.873488504E0,5.476812840E0,-7.135343075E0,-1.735725403E0,9.160859258E0
6.878432351E0,5.164216995E0,-6.579351425E0,-1.441352844E0,8.487314085E0
6.883406717E0,4.780702591E0,-6.120587349E0,-1.320137024E0,7.877783224E0
6.888381082E0,4.283019543E0,-5.806332111E0,-1.256985664E0,7.323780578E0
6.893355447E0,3.772104740E0,-5.510077477E0,-1.187430382E0,6.782309259E0
6.898299295E0,3.328283072E0,-5.178232193E0,-1.133761406E0,6.259151043E0
6.903273660E0,2.896225691E0,-4.892447472E0,-1.111312866E0,5.793028724E0
6.908248025E0,2.411126852E0,-4.598670006E0,-1.144928932E0,5.317157208E0
6.913222390E0,1.985298157E0,-4.359127045E0,-1.099542618E0,4.914508249E0
6.918166238E0,1.570154428E0,-4.078692913E0,-1.075685501E0,4.500913252E0
6.923140603E0,1.152712345E0,-3.812532902E0,-1.061813354E0,4.122086908E0
6.928114969E0,8.271434307E-1,-3.593412399E0,-9.955615997E-1,3.819413806E0
6.933089334E0,5.938935280E-1,-3.352536201E0,-9.356269836E-1,3.530949781E0
6.938033181E0,3.895075321E-1,-3.118397713E0,-7.906370163E-1,3.240559721E0
6.943007547E0,2.066476345E-1,-2.875721455E0,-6.535654068E-1,2.956285654E0
6.947981912E0,-4.114222527E-2,-2.660899162E0,-5.587615967E-1,2.719244667E0
6.952956277E0,-2.312147617E-1,-2.524026871E0,-4.286165237E-1,2.570580486E0
6.957900125E0,-3.614506721E-1,-2.427596092E0,-2.716426849E-1,2.469343865E0
6.962874490E0,-5.471098423E-1,-2.293900490E0,-1.902770996E-1,2.365906594E0
6.967848855E0,-6.828324795E-1,-2.166381836E0,-3.018856049E-2,2.271647377E0
6.972823220E0,-8.017065525E-1,-2.078809738E0,8.785629272E-2,2.229776234E0
6.977767068E0,-9.167263508E-1,-2.026619434E0,2.350912094E-1,2.236703246E0
6.982741433E0,-1.123317242E0,-1.798138618E0,5.383167267E-1,2.187448060E0
6.987715799E0,-1.182717323E0,-1.689878464E0,6.448163986E-1,2.161087152E0
6.992690164E0,-1.172904015E0,-1.712401390E0,6.333293915E-1,2.170052641E0
6.997634011E0,-1.146377325E0,-1.641651154E0,7.949810028E-1,2.154343119E0
7.002608377E0,-1.105536461E0,-1.528676033E0,1.012734413E0,2.141189453E0
7.007582742E0,-1.037443161E0,-1.418739796E0,1.171393394E0,2.112172674E0
7.012526590E0,-9.191622734E-1,-1.326564789E0,1.405756950E0,2.140277091E0
7.017500955E0,-8.420579433E-1,-1.135661125E0,1.583596230E0,2.122867115E0
7.022475320E0,-7.717170715E-1,-9.583015442E-1,1.730756760E0,2.123536684E0
7.027449685E0,-7.380359173E-1,-9.027309418E-1,1.829706192E0,2.169664702E0
7.032393533E0,-7.902412415E-1,-8.077411652E-1,1.848091125E0,2.166187392E0
7.037367898E0,-9.148318768E-1,-7.585363388E-1,1.855720520E0,2.203631863E0
7.042342263E0,-1.064214230E0,-7.382192612E-1,1.822482109E0,2.235835558E0
7.047316629E0,-1.198844910E0,-7.330169678E-1,1.715404510E0,2.217466037E0
7.052260476E0,-1.362558365E0,-7.320261002E-1,1.679055214E0,2.282904711E0
7.057234842E0,-1.466012478E0,-7.129282951E-1,1.597079277E0,2.282130924E0
7.062209207E0,-1.543125629E0,-6.888017654E-1,1.554728508E0,2.296272047E0
7.067183572E0,-1.598221302E0,-6.872277260E-1,1.527725220E0,2.315283487E0
7.072127420E0,-1.593227386E0,-6.783041954E-1,1.467346191E0,2.269708116E0
7.077101785E0,-1.564999819E0,-6.507296562E-1,1.419333458E0,2.210696945E0
7.082076150E0,-1.501069546E0,-5.006752014E-1,1.441123962E0,2.140262534E0
7.087050515E0,-1.398912191E0,-3.234190941E-1,1.518898010E0,2.090121144E0
7.091994363E0,-1.361918926E0,-2.172002792E-1,1.456411362E0,2.005774957E0
7.096968728E0,-1.315472841E0,-1.873083115E-1,1.461229324E0,1.975030212E0
7.101943094E0,-1.221533775E0,-1.471381187E-1,1.423698425E0,1.881677867E0
7.106886941E0,-1.166140556E0,-1.060123444E-1,1.356705666E0,1.792141924E0
7.111861306E0,-1.125951290E0,-4.653310776E-2,1.328426361E0,1.742024177E0
7.116835672E0,-1.135010719E0,2.081394196E-3,1.279695511E0,1.710518712E0
7.121810037E0,-1.184056759E0,5.110406876E-2,1.245656013E0,1.719378067E0
7.126753885E0,-1.153123617E0,7.785892487E-2,1.152684212E0,1.632310320E0
7.131728250E0,-1.155671120E0,8.176708221E-2,1.016864777E0,1.541517294E0
7.136702615E0,-1.188977480E0,7.576036453E-2,9.103984833E-1,1.499410711E0
7.141676980E0,-1.226437330E0,1.175160408E-1,7.619714737E-1,1.448640422E0
7.146620828E0,-1.241146326E0,1.088385582E-1,6.588697433E-1,1.409396812E0
7.151595193E0,-1.177259684E0,1.178307533E-1,5.916938782E-1,1.322847722E0
7.156569558E0,-1.101381302E0,1.633791924E-1,4.995794296E-1,1.220374180E0
7.161543924E0,-1.037518740E0,1.733794212E-1,4.710502625E-1,1.152559720E0
7.166487771E0,-9.817264080E-1,2.254428864E-1,4.563732147E-1,1.105842550E0
7.171462136E0,-9.526541233E-1,2.292819023E-1,5.123596191E-1,1.105727113E0
7.176436502E0,-9.466540813E-1,2.464671135E-1,5.527391434E-1,1.123574897E0
7.181410867E0,-9.878106117E-1,2.602415085E-1,6.103858948E-1,1.189985877E0
7.186354715E0,-1.053153515E0,2.345495224E-1,6.887845993E-1,1.280066416E0
7.191329080E0,-1.100249529E0,1.821837425E-1,7.686729431E-1,1.354473342E0
7.196303445E0,-1.106680155E0,1.067891121E-1,8.713645935E-1,1.412593761E0
7.201277810E0,-1.097552299E0,7.099103928E-2,9.753742218E-1,1.470039336E0
7.206221658E0,-1.082528830E0,3.415060043E-2,1.065183640E0,1.519095493E0
7.211196023E0,-1.038479805E0,-4.949808121E-2,1.151830673E0,1.551645664E0
7.216170388E0,-9.935996532E-1,-1.181626320E-1,1.239165306E0,1.592712571E0
7.221144754E0,-8.988153934E-1,-2.069764137E-1,1.255112648E0,1.557567368E0
7.226111048E0,-7.731339931E-1,-2.549386024E-1,1.324302673E0,1.554511960E0
7.231054896E0,-6.050736904E-1,-2.963199615E-1,1.356371880E0,1.514484852E0
7.236029261E0,-4.626901150E-1,-3.542456627E-1,1.386338234E0,1.503830386E0
7.240973108E0,-2.808339596E-1,-3.889226913E-1,1.420170784E0,1.499004212E0
7.245947474E0,-1.468694210E-1,-4.145202637E-1,1.458094597E0,1.522969970E0
7.250921839E0,-7.936787605E-2,-4.680962563E-1,1.492300987E0,1.566006258E0
7.255896204E0,-5.972194672E-2,-4.909915924E-1,1.536359787E0,1.614013894E0
7.260840052E0,-1.199998856E-1,-4.961915016E-1,1.581585884E0,1.661932576E0
7.265814417E0,-2.085864544E-1,-5.153779984E-1,1.606140137E0,1.699649649E0
7.270788782E0,-3.390541077E-1,-5.065531731E-1,1.616905212E0,1.727986189E0
7.275763148E0,-5.252544880E-1,-6.030054092E-1,1.603449821E0,1.791803318E0
7.280706995E0,-7.343623638E-1,-6.561260223E-1,1.582933426E0,1.864260623E0
7.285681360E0,-8.872857094E-1,-7.034254074E-1,1.518343925E0,1.894056892E0
7.290655726E0,-9.874272346E-1,-8.544540405E-1,1.421692848E0,1.930366495E0
7.295630091E0,-1.021977901E0,-1.023646832E0,1.306981087E0,1.949484862E0
7.300573939E0,-1.046710968E0,-1.149245262E0,1.198148727E0,1.962633154E0
7.305548304E0,-1.008500814E0,-1.261778831E0,1.086529732E0,1.946716870E0
7.310522669E0,-9.683494568E-1,-1.341943264E0,9.507951736E-1,1.908539718E0
7.315497034E0,-8.814039230E-1,-1.460158825E0,8.609962463E-1,1.910563060E0
7.320440882E0,-7.779452801E-1,-1.568325520E0,7.395353317E-1,1.900462128E0
7.325415247E0,-7.045550346E-1,-1.698754311E0,6.118106842E-1,1.938163130E0
7.330389612E0,-6.710889339E-1,-1.877036095E0,5.483055115E-1,2.067429271E0
7.335333460E0,-6.151401997E-1,-2.027274609E0,5.124902725E-1,2.179652744E0
7.340307825E0,-4.716587067E-1,-2.171323299E0,5.045299530E-1,2.278520853E0
7.345282190E0,-3.395545483E-1,-2.307524681E0,4.979457855E-1,2.384935523E0
7.350256556E0,-2.078707218E-1,-2.393270969E0,4.729604721E-1,2.448396981E0
7.355200403E0,-1.697763205E-1,-2.460395336E0,4.525432587E-1,2.507421905E0
7.360174769E0,-1.156316996E-1,-2.543849945E0,4.229917526E-1,2.581368872E0
7.365149134E0,-1.514339447E-2,-2.632841587E0,3.259696960E-1,2.652987069E0
7.370123499E0,-8.957386017E-3,-2.690255642E0,2.109298706E-1,2.698526832E0
7.375097864E0,-4.952180386E-2,-2.726387501E0,5.062961578E-2,2.727307202E0
7.380041712E0,1.507759094E-2,-2.778480530E0,-3.512096405E-2,2.778743398E0
7.385016077E0,7.934427261E-2,-2.810631275E0,-9.970855713E-2,2.813518345E0
7.389990442E0,1.073119640E-1,-2.890717030E0,-1.493434906E-1,2.896560768E0
7.394934290E0,1.029672623E-1,-2.974350929E0,-2.127075195E-1,2.983724216E0
7.399908655E0,8.151686192E-2,-3.076877594E0,-1.603488922E-1,3.082131161E0
7.404883021E0,5.408275127E-2,-3.212286949E0,-1.194057465E-1,3.214960361E0
7.409857386E0,-2.291190624E-2,-3.367575645E0,-9.313869476E-2,3.368941303E0
7.414801233E0,-9.826517105E-2,-3.463057995E0,-7.181072235E-2,3.465196026E0
7.419775599E0,-1.953153610E-1,-3.542532444E0,-6.446075439E-2,3.548498189E0
7.424749964E0,-2.423900366E-1,-3.611287117E0,-7.871246338E-2,3.620268391E0
7.429724329E0,-2.778159380E-1,-3.656723976E0,-1.222143173E-1,3.669298063E0
7.434668177E0,-2.910662889E-1,-3.620427608E0,-1.997337341E-1,3.637596627E0
7.439642542E0,-2.973166704E-1,-3.640064240E0,-3.386220932E-1,3.667850841E0
7.444616907E0,-2.859472036E-1,-3.633389950E0,-5.036582947E-1,3.679260796E0
7.449591273E0,-2.735539675E-1,-3.673638821E0,-6.141395569E-1,3.734651437E0
7.454535120E0,-2.814239264E-1,-3.681498051E0,-7.863349915E-1,3.775043052E0
7.459509485E0,-3.239648342E-1,-3.670941830E0,-1.001177788E0,3.818785683E0
7.464483851E0,-3.345944881E-1,-3.708927155E0,-1.154408455E0,3.898814306E0
7.469458216E0,-4.806209803E-1,-3.827177286E0,-1.359405518E0,4.089775772E0
7.474402064E0,-6.514542103E-1,-3.974857092E0,-1.528808594E0,4.308263827E0
7.479376429E0,-6.536146402E-1,-4.140452385E0,-1.610723495E0,4.490544313E0
7.484350794E0,-7.577896118E-1,-4.295876026E0,-1.680098534E0,4.674561692E0
7.489294642E0,-8.492661119E-1,-4.422657967E0,-1.769286156E0,4.838546261E0
7.494269007E0,-8.356617689E-1,-4.582613945E0,-1.896682739E0,5.029521506E0
7.499243372E0,-7.956340313E-1,-4.692610741E0,-1.942642212E0,5.140767242E0
7.504217737E0,-7.204148769E-1,-4.797163010E0,-1.972990036E0,5.236836852E0
7.509161585E0,-6.013113260E-1,-4.853342056E0,-1.988220215E0,5.279159407E0
7.514135950E0,-5.515471101E-1,-4.941172600E0,-2.003009796E0,5.360171557E0
7.519110315E0,-4.860364795E-1,-4.938426018E0,-2.031084061E0,5.361863991E0
7.524084681E0,-4.956141114E-1,-5.007958412E0,-2.043060303E0,5.431332820E0
7.529028528E0,-4.979786277E-1,-5.138857841E0,-2.004148483E0,5.538271731E0
7.534002894E0,-6.146854758E-1,-5.245141983E0,-2.075802803E0,5.674355464E0
7.538977259E0,-7.393425703E-1,-5.320270538E0,-2.145565033E0,5.784060455E0
7.543951624E0,-8.401281834E-1,-5.423035622E0,-2.208836555E0,5.915580246E0
7.548895472E0,-1.043743491E0,-5.547936916E0,-2.291443825E0,6.092595449E0
7.553869837E0,-1.184754848E0,-5.606259346E0,-2.260947227E0,6.160005704E0
7.558844202E0,-1.309439421E0,-5.778261185E0,-2.198263168E0,6.319437860E0
7.563818567E0,-1.538773537E0,-5.963143349E0,-2.098736763E0,6.506273787E0
7.568762415E0,-1.731340170E0,-6.097789764E0,-2.019304276E0,6.652681305E0
7.573736780E0,-1.904696822E0,-6.271479130E0,-1.922467232E0,6.830461237E0
7.578711146E0,-2.029648781E0,-6.438311577E0,-1.865573883E0,7.003691601E0
7.583654993E0,-2.123548269E0,-6.609283447E0,-1.766613007E0,7.163309742E0
7.588629358E0,-2.274816990E0,-6.757742405E0,-1.750728607E0,7.342133573E0
7.593603724E0,-2.411839485E0,-6.924273014E0,-1.740712166E0,7.536086871E0
7.598578089E0,-2.489032984E0,-7.130249977E0,-1.743708611E0,7.750888314E0
7.603521937E0,-2.545971870E0,-7.379689693E0,-1.745862961E0,7.999364363E0
7.608496302E0,-2.609533072E0,-7.571916580E0,-1.695423126E0,8.186454857E0
7.613470667E0,-2.681561470E0,-7.747322083E0,-1.617461205E0,8.356312112E0
7.618445032E0,-2.738609076E0,-7.868704319E0,-1.525177002E0,8.470103436E0
7.623388880E0,-2.757710934E0,-7.983930111E0,-1.462604523E0,8.572474649E0
7.628363245E0,-2.741191626E0,-8.082570076E0,-1.304575920E0,8.633886083E0
7.633337610E0,-2.682183266E0,-8.200263977E0,-1.130158424E0,8.701476566E0
7.638311976E0,-2.676320076E0,-8.323278427E0,-1.029027939E0,8.803326157E0
7.643286341E0,-2.755654335E0,-8.417850494E0,-9.048614502E-1,8.903516833E0
7.648230189E0,-2.766406536E0,-8.561019897E0,-8.277225494E-1,9.034887461E0
7.653204554E0,-2.806526661E0,-8.689633369E0,-7.716646194E-1,9.164157696E0
7.658178919E0,-2.875556469E0,-8.845129013E0,-7.173089981E-1,9.328433119E0
7.663122767E0,-2.969921589E0,-9.018331528E0,-7.391042709E-1,9.523497935E0
7.668097132E0,-3.082633972E0,-9.222970963E0,-7.824153900E-1,9.755921249E0
7.673071497E0,-3.231587410E0,-9.408871651E0,-8.523797989E-1,9.984817187E0
7.678045862E0,-3.339872360E0,-9.610174179E0,-8.519849777E-1,1.020960692E1
7.682989710E0,-3.460021019E0,-9.872762680E0,-8.467388153E-1,1.049572080E1
7.687964075E0,-3.636851072E0,-1.012339592E1,-8.976526260E-1,1.079423971E1
7.692938440E0,-3.773884535E0,-1.039206314E1,-9.055404663E-1,1.109311428E1
7.697882288E0,-3.819823503E0,-1.065448952E1,-8.746976852E-1,1.135228147E1
7.702856653E0,-3.866189241E0,-1.085254097E1,-7.508325577E-1,1.154507749E1
7.707831019E0,-3.881021738E0,-1.105560589E1,-6.358804703E-1,1.173427012E1
7.712805384E0,-3.904030800E0,-1.127900505E1,-4.974861145E-1,1.194591578E1
7.717779749E0,-3.896729231E0,-1.154568672E1,-2.369394302E-1,1.218784316E1
7.722723597E0,-3.853811502E0,-1.181238461E1,1.167678833E-2,1.242515310E1
7.727697962E0,-3.777053118E0,-1.206475925E1,2.552537918E-1,1.264474992E1
7.732672327E0,-3.659833908E0,-1.236471748E1,4.089498520E-1,1.290146746E1
7.737616175E0,-3.550802231E0,-1.261258411E1,5.232114792E-1,1.311332242E1
7.742590540E0,-3.473341227E0,-1.291682625E1,5.097746849E-1,1.338537896E1
7.747564905E0,-3.359340668E0,-1.319942856E1,4.547924995E-1,1.362779954E1
7.752539271E0,-3.225009441E0,-1.348625851E1,4.323010445E-1,1.387323822E1
7.757483118E0,-2.982214928E0,-1.379422760E1,4.585881233E-1,1.412036204E1
7.762457483E0,-2.783453941E0,-1.402992058E1,5.227727890E-1,1.431291650E1
7.767431849E0,-2.606964111E0,-1.426334286E1,5.455999374E-1,1.450988941E1
7.772406214E0,-2.420575619E0,-1.441292095E1,5.935697556E-1,1.462681790E1
7.777350062E0,-2.262571812E0,-1.468115044E1,6.617665291E-1,1.486920792E1
7.782324427E0,-2.086986065E0,-1.500170422E1,7.668766975E-1,1.516557747E1
7.787298792E0,-2.014323711E0,-1.528889084E1,9.391117096E-1,1.544958297E1
7.792273157E0,-2.015970230E0,-1.549505806E1,1.096908092E0,1.566410443E1
7.797217005E0,-2.063204765E0,-1.569228935E1,1.272122860E0,1.587838328E1
7.802191370E0,-2.197102547E0,-1.590648174E1,1.458353996E0,1.612359195E1
7.807165735E0,-2.297666073E0,-1.609998512E1,1.614309788E0,1.634303480E1
7.812109583E0,-2.236937523E0,-1.577757454E1,1.766467094E0,1.603297084E1
7.817083948E0,-2.364594936E0,-1.642357635E1,1.937370777E0,1.670564500E1
7.822058314E0,-2.650005341E0,-1.726708984E1,1.846977711E0,1.756662309E1
7.827032679E0,-2.813169003E0,-1.762507439E1,1.805688858E0,1.793927756E1
7.831976526E0,-2.874249458E0,-1.766456795E1,1.787886620E0,1.798596145E1
7.836950892E0,-2.870471954E0,-1.769011116E1,1.754450798E0,1.800715801E1
7.841925257E0,-2.808970928E0,-1.783507156E1,1.648081779E0,1.812998260E1
7.846899622E0,-2.778559685E0,-1.805710793E1,1.540463448E0,1.833446395E1
7.851843470E0,-2.801567078E0,-1.831234741E1,1.542082787E0,1.858948265E1
7.856817835E0,-2.642783165E0,-1.860067558E1,1.463523626E0,1.884439801E1
7.861792200E0,-2.385032654E0,-1.885423279E1,1.415961981E0,1.905716199E1
7.866766565E0,-2.099549294E0,-1.901253700E1,1.432966709E0,1.918171171E1
7.871710413E0,-1.891551971E0,-1.918655586E1,1.576665163E0,1.934393362E1
7.876684778E0,-1.704825401E0,-1.931935692E1,1.721585751E0,1.947069179E1
7.881659144E0,-1.577435493E0,-1.940922737E1,1.881249428E0,1.956388278E1
7.886633509E0,-1.394268036E0,-1.951527977E1,1.962357759E0,1.966318834E1
7.891577357E0,-1.252977371E0,-1.962387276E1,2.000195265E0,1.976530079E1
7.896551722E0,-1.077598572E0,-1.976228333E1,2.000288725E0,1.989246631E1
7.901526087E0,-8.462705612E-1,-1.984890366E1,1.980615854E0,1.996541984E1
7.906500452E0,-5.896444321E-1,-1.979717636E1,2.031245232E0,1.990984253E1
7.911444300E0,-3.189153671E-1,-1.983712769E1,1.990234613E0,1.993926718E1
7.916418665E0,-4.771518707E-2,-2.004862022E1,1.808128834E0,2.013004668E1
7.921393030E0,1.337842941E-1,-2.030515099E1,1.624525309E0,2.037047219E1
7.926367396E0,3.411312103E-1,-2.047143745E1,1.575219989E0,2.053478609E1
7.931311243E0,5.122375488E-1,-2.041736412E1,1.625208497E0,2.048834907E1
7.936285608E0,5.770130157E-1,-2.025671387E1,1.647645950E0,2.033180115E1
7.941259974E0,6.992387772E-1,-2.015735817E1,1.628873229E0,2.023514891E1
7.946203821E0,7.958393097E-1,-2.011828804E1,1.583185315E0,2.019617166E1
7.951178187E0,8.331031799E-1,-2.016520119E1,1.680600882E0,2.025225467E1
7.956152552E0,8.353452682E-1,-2.010398865E1,1.990944505E0,2.021959498E1
7.961126917E0,9.435977936E-1,-1.992181206E1,2.274417400E0,2.007341393E1
7.966070765E0,1.091102600E0,-1.983500481E1,2.414630175E0,2.001120585E1
7.971045130E0,1.246839523E0,-1.977291679E1,2.569740295E0,1.997814838E1
7.976019495E0,1.458133698E0,-1.959288788E1,2.751069069E0,1.983874468E1
7.980993860E0,1.672012329E0,-1.931313896E1,2.930539131E0,1.960563749E1
7.985937708E0,2.194287300E0,-1.887501144E1,3.306146383E0,1.928760114E1
7.990912073E0,2.091800690E0,-1.866252708E1,3.074603558E0,1.902941760E1
7.995886439E0,2.219167709E0,-1.842470932E1,3.059074163E0,1.880831076E1
8.000860804E0,2.325875282E0,-1.815746689E1,3.032717943E0,1.855534095E1
8.005804651E0,2.423532486E0,-1.781782150E1,3.043697834E0,1.823766348E1
8.010779017E0,2.585281372E0,-1.739427567E1,2.974614143E0,1.783515727E1
8.015753382E0,2.640962601E0,-1.704090309E1,2.870543003E0,1.748162117E1
8.020727747E0,2.648443222E0,-1.684677696E1,2.832595825E0,1.728732902E1
8.025671595E0,2.557269096E0,-1.679602814E1,2.807109356E0,1.721993175E1
8.030645960E0,2.398936272E0,-1.665835571E1,2.971422195E0,1.709049619E1
8.035620325E0,2.347777367E0,-1.635141563E1,3.238340378E0,1.683352905E1
8.040594690E0,2.453512669E0,-1.593232250E1,3.439081192E0,1.648289732E1
8.045538538E0,2.518047333E0,-1.552256298E1,3.557757854E0,1.612290808E1
8.050512903E0,2.497373104E0,-1.520324993E1,3.640683651E0,1.583130627E1
8.055487269E0,2.470050812E0,-1.502207756E1,3.755309582E0,1.568012485E1
8.060431116E0,2.433094501E0,-1.479885674E1,3.947466850E0,1.550833982E1
8.065405482E0,2.425559521E0,-1.453814316E1,4.171604156E0,1.531806864E1
8.070379847E0,2.448765278E0,-1.432087326E1,4.332513809E0,1.516095440E1
8.075354212E0,2.511201859E0,-1.407686234E1,4.521510124E0,1.499694108E1
8.080298060E0,2.532144547E0,-1.381920433E1,4.761096954E0,1.483408941E1
8.085272425E0,2.518449783E0,-1.345712757E1,4.919141769E0,1.454767430E1
8.090246790E0,2.526836395E0,-1.311878777E1,5.142752171E0,1.431556476E1
8.095221155E0,2.434876442E0,-1.286336517E1,5.373293877E0,1.415157496E1
8.100165003E0,2.300537109E0,-1.265260410E1,5.603506565E0,1.402783474E1
8.105139368E0,2.205025196E0,-1.248468685E1,5.810436249E0,1.394599266E1
8.110113733E0,2.103756905E0,-1.224370575E1,6.141145706E0,1.385813098E1
8.115088099E0,2.041794777E0,-1.189221478E1,6.489480972E0,1.370062267E1
8.120031946E0,2.066511631E0,-1.144423103E1,6.823359966E0,1.348329097E1
8.125006312E0,2.122946262E0,-1.104343414E1,7.086915016E0,1.329243029E1
8.129980677E0,2.132711411E0,-1.072052860E1,7.283931255E0,1.313521397E1
8.134955042E0,2.117955208E0,-1.042524147E1,7.445469856E0,1.298485331E1
8.139898890E0,2.133100986E0,-1.015527725E1,7.675308228E0,1.290697998E1
8.144873255E0,2.116229057E0,-9.805439949E0,7.939016342E0,1.279269551E1
8.149847620E0,2.066894054E0,-9.408926010E0,8.233143806E0,1.267219778E1
8.154821985E0,1.946363926E0,-9.086888313E0,8.437647820E0,1.255204256E1
8.159765833E0,1.803235054E0,-8.856191635E0,8.603412628E0,1.247808061E1
8.164740198E0,1.619890213E0,-8.728899002E0,8.746219635E0,1.246250697E1
8.169714564E0,1.423949718E0,-8.564670563E0,8.891748428E0,1.242756632E1
