"Time (s)","Linear Acceleration x (m/s^2)","Linear Acceleration y (m/s^2)","Linear Acceleration z (m/s^2)","Absolute acceleration (m/s^2)"
0.000000000E0,2.948999405E-3,2.433419228E-3,7.011890411E-2,7.022306488E-2
4.974365000E-3,1.600241661E-2,1.191985607E-2,2.207565308E-2,2.975726407E-2
9.948731000E-3,4.470396042E-2,1.785790920E-2,-8.683204651E-3,4.891571364E-2
1.492309600E-2,1.074507236E-1,1.668608189E-2,-3.623676300E-2,1.146175656E-1
1.989746100E-2,1.499323845E-1,-1.812815666E-3,-1.000986099E-1,1.802851573E-1
2.484130900E-2,1.328182220E-1,-2.897083759E-2,-1.345176697E-1,1.912458967E-1
2.978515600E-2,1.070673466E-1,-4.874587059E-2,-1.491403580E-1,1.899537390E-1
3.475952200E-2,5.386185646E-2,-6.958246231E-2,-1.872797012E-1,2.069214951E-1
3.973388700E-2,2.177047729E-2,-7.218587399E-2,-1.584615707E-1,1.754845392E-1
4.467773500E-2,-3.497624397E-2,-8.612155914E-2,-1.564435959E-1,1.819748864E-1
4.965210000E-2,-7.749199867E-2,-7.801735401E-2,-1.848678589E-1,2.150996110E-1
5.462646500E-2,-1.249883175E-1,-7.303977013E-2,-1.746654510E-1,2.268587828E-1
5.960083000E-2,-1.658763885E-1,-6.939947605E-2,-1.137781143E-1,2.127832767E-1
6.457519500E-2,-1.968379021E-1,-5.794668198E-2,-7.458114624E-2,2.183238993E-1
6.951904300E-2,-1.570270061E-1,-3.632736206E-2,-5.117416382E-2,1.691033794E-1
7.449340800E-2,-3.313088417E-2,-3.249645233E-4,-2.441024780E-2,4.115363029E-2
7.946777400E-2,2.152886391E-1,1.155101061E-1,-1.008825302E-1,2.643275764E-1
8.441162100E-2,2.996046543E-1,2.003982067E-1,-2.491893768E-1,4.381982835E-1
8.938598600E-2,1.334173679E-1,3.208160400E-2,-7.504463196E-2,1.564005120E-1
9.436035200E-2,1.576514244E-1,1.911485195E-2,5.874252319E-2,1.693222762E-1
9.933471700E-2,1.887576580E-1,1.903939247E-2,4.923248291E-2,1.959994625E-1
1.043090820E-1,1.914169788E-1,1.754450798E-2,3.453445435E-2,1.952969485E-1
1.092529300E-1,2.118036747E-1,6.127130985E-2,4.184055328E-2,2.244228195E-1
1.142272950E-1,2.055809498E-1,9.570741653E-2,8.262634277E-2,2.413515051E-1
1.192016600E-1,1.594038010E-1,1.224226952E-1,9.885978699E-2,2.239869316E-1
1.241455080E-1,1.303634644E-1,1.567466259E-1,6.312656403E-2,2.134223528E-1
1.291198730E-1,1.554546356E-1,1.701211929E-1,1.085062027E-1,2.547174121E-1
1.340942380E-1,2.276437283E-1,1.557298899E-1,1.056184769E-1,2.953451003E-1
1.390686040E-1,2.670986652E-1,1.615805626E-1,9.016990662E-2,3.249316655E-1
1.440124510E-1,3.139097691E-1,1.746791601E-1,1.176872253E-1,3.780243843E-1
1.489868170E-1,3.578102589E-1,1.935936213E-1,1.467561722E-1,4.324858907E-1
1.539611820E-1,3.956575394E-1,1.977806091E-1,1.401042938E-1,4.639949040E-1
1.589050290E-1,3.782639503E-1,2.545911074E-1,1.265840530E-1,4.732058438E-1
1.638793950E-1,4.020643234E-1,2.245405912E-1,1.232671738E-1,4.767273785E-1
1.688537600E-1,3.956785202E-1,1.524044275E-1,9.191417694E-2,4.338626704E-1
1.738281250E-1,3.831655979E-1,1.652004719E-1,7.925224304E-2,4.247210724E-1
1.788024900E-1,3.486373425E-1,9.243071079E-2,6.742095947E-2,3.669291739E-1
1.837463380E-1,2.791063786E-1,-1.326978207E-2,1.008348465E-1,2.970591253E-1
1.887207030E-1,3.060975075E-1,-4.873871803E-3,1.113500595E-1,3.257579998E-1
1.936950690E-1,3.689417839E-1,1.504933834E-2,1.892709732E-1,4.149313483E-1
1.986389160E-1,-9.611368179E-3,1.690721512E-2,-2.051210403E-1,2.060409511E-1
2.036132810E-1,-2.434182167E-1,8.995759487E-2,-2.762708664E-1,3.790387694E-1
2.085876470E-1,-2.331442833E-1,1.709821224E-1,-1.570644379E-1,3.290294526E-1
2.135620120E-1,-1.448581219E-1,2.240922451E-1,-9.513950348E-2,2.832891366E-1
2.185058600E-1,-8.683347702E-2,2.539582253E-1,-1.192398071E-1,2.936885502E-1
2.234802250E-1,-1.615762711E-2,2.797892094E-1,-2.141408920E-1,3.527029802E-1
2.284545900E-1,5.410695076E-2,2.682430744E-1,-3.761281967E-1,4.651390431E-1
2.333984380E-1,4.498004913E-2,2.645967007E-1,-4.748945236E-1,5.454900800E-1
2.383728030E-1,-2.258419991E-2,2.289563417E-1,-5.092277527E-1,5.587879353E-1
2.433471680E-1,-7.582020760E-2,2.282153368E-1,-4.769477844E-1,5.341442997E-1
2.483215330E-1,-1.378624439E-1,2.649077177E-1,-3.448047638E-1,4.561496218E-1
2.532653810E-1,-1.595878601E-1,2.796536684E-1,-2.738685608E-1,4.227037354E-1
2.582397460E-1,-1.414401531E-1,2.531204224E-1,-1.548433304E-1,3.287122177E-1
2.632141110E-1,-1.395177841E-1,1.657086611E-1,-4.857063293E-2,2.219992766E-1
2.681884770E-1,-1.350727081E-1,8.915603161E-2,1.466751099E-2,1.625071393E-1
2.731323240E-1,-1.751015186E-1,3.809118271E-2,6.968688965E-2,1.922699733E-1
2.781066900E-1,-1.598076820E-1,3.590428829E-2,7.134056091E-2,1.786535440E-1
2.830810550E-1,-1.835961342E-1,2.961063385E-2,-4.943847656E-3,1.860343295E-1
2.880554200E-1,-1.812129021E-1,-4.459607601E-2,-4.309082031E-2,1.915300098E-1
2.929992680E-1,-2.292537689E-1,-4.179167747E-2,-2.663898468E-2,2.345495052E-1
2.979736330E-1,-2.575869560E-1,-6.943416595E-2,-5.415439606E-2,2.722220453E-1
3.029479980E-1,-3.099663258E-1,-8.757829666E-2,-7.669067383E-2,3.311050296E-1
3.079223630E-1,-2.339196205E-1,-6.959438324E-4,-4.190540314E-2,2.376445581E-1
3.128662110E-1,-2.650580406E-1,4.655551910E-2,-1.084756851E-1,2.901553989E-1
3.178405760E-1,-3.988792896E-1,-4.613423347E-2,-1.982641220E-1,4.478188443E-1
3.228149420E-1,-3.555228710E-1,1.004571915E-1,-3.364038467E-1,4.996555886E-1
3.277893070E-1,-2.620756626E-1,3.475100994E-1,-5.941057205E-1,7.364838961E-1
3.327331540E-1,-2.589325905E-1,3.671166897E-1,-6.287794113E-1,7.727770043E-1
3.377075200E-1,-2.933514118E-1,2.926943302E-1,-5.990762711E-1,7.284348978E-1
3.426513670E-1,-3.214459419E-1,2.314276695E-1,-5.145339966E-1,6.493315743E-1
3.476257330E-1,-3.525433540E-1,1.501245499E-1,-4.352836609E-1,5.799103917E-1
3.526000980E-1,-4.219851494E-1,1.097724438E-1,-2.974338531E-1,5.278146954E-1
3.575744630E-1,-4.415090084E-1,1.287276745E-1,-1.933536530E-1,4.988854115E-1
3.625488280E-1,-4.663009644E-1,5.426645279E-2,-1.037702560E-1,4.807803067E-1
3.674926760E-1,-3.990802765E-1,-5.030155182E-3,1.933193207E-2,3.995798958E-1
3.724670410E-1,-2.941873074E-1,-5.774140358E-2,1.992416382E-1,3.599687096E-1
3.774414060E-1,-2.056531906E-1,-9.057641029E-2,3.101339340E-1,3.829887439E-1
3.824157720E-1,-2.041177750E-1,-1.478567123E-1,3.172502518E-1,4.051831631E-1
3.873596190E-1,-1.705837250E-1,-1.961503029E-1,3.542432785E-1,4.393882667E-1
3.923339850E-1,-1.800274849E-1,-2.391891479E-1,3.590927124E-1,4.675135505E-1
3.973083500E-1,-1.603629589E-1,-2.290399075E-1,3.438148499E-1,4.431525796E-1
4.022827150E-1,-1.035902500E-1,-1.780116558E-1,2.809553146E-1,3.483604144E-1
4.072265630E-1,-1.617455482E-2,-1.545488834E-1,2.150411606E-1,2.653105244E-1
4.122009280E-1,-4.853367805E-2,-9.281229973E-2,5.944728851E-2,1.204309802E-1
4.171752930E-1,-1.189897060E-1,-6.320118904E-2,-1.508951187E-1,2.022925537E-1
4.221496580E-1,-1.614439487E-1,-1.153469086E-2,-3.320856094E-1,3.694293568E-1
4.271240240E-1,-2.461807728E-1,1.311326027E-2,-4.979639053E-1,5.556482534E-1
4.320678710E-1,-3.450961113E-1,-4.796862602E-2,-5.709953308E-1,6.689005778E-1
4.370422360E-1,-4.560377598E-1,-1.298837662E-1,-5.622844696E-1,7.355297790E-1
4.420166020E-1,-4.881086349E-1,-2.484788895E-1,-4.314393997E-1,6.972314922E-1
4.469604490E-1,-4.207477570E-1,-2.947289944E-1,-2.301874161E-1,5.629210439E-1
4.519348150E-1,-3.205118179E-1,-3.189690113E-1,-1.498908997E-1,4.763783553E-1
4.569091800E-1,-1.539030075E-1,-3.256435394E-1,-3.899574280E-2,3.622851342E-1
4.618835450E-1,-6.333374977E-2,-3.320217133E-1,1.164226532E-1,3.574965959E-1
4.668579100E-1,4.792237282E-2,-3.300759792E-1,1.791391373E-1,3.785994405E-1
4.718017580E-1,8.161520958E-2,-3.363895416E-1,2.763481140E-1,4.429302950E-1
4.767761230E-1,1.538038254E-1,-3.025057316E-1,3.276720047E-1,4.717353888E-1
4.817199710E-1,1.928601265E-1,-2.835068703E-1,3.541955948E-1,4.929763618E-1
4.866943360E-1,2.477169037E-1,-2.261705399E-1,3.337316513E-1,4.731739559E-1
4.916687010E-1,3.265028000E-1,-1.393964291E-1,2.317695618E-1,4.239723724E-1
4.966430670E-1,3.104674816E-1,-3.755378723E-2,1.492567062E-1,3.465225944E-1
5.015869140E-1,2.680208683E-1,1.697216034E-1,1.078290939E-1,3.350637581E-1
5.065612790E-1,2.214791775E-1,1.801714897E-1,6.282138824E-2,2.923376790E-1
5.115356450E-1,1.250865459E-1,1.343967915E-1,5.383491516E-3,1.836794042E-1
5.165100100E-1,1.269712448E-1,8.313918114E-2,4.065513611E-3,1.518234134E-1
5.214538580E-1,8.861637115E-2,6.741404533E-2,-1.528282166E-1,1.890872246E-1
5.264282230E-1,1.090598106E-2,4.867172241E-2,-1.731081009E-1,1.801507468E-1
5.314025880E-1,-2.558326721E-2,1.282076836E-1,-2.835540771E-1,3.122412983E-1
5.363769530E-1,-1.172423363E-1,1.560170650E-1,-3.360118866E-1,3.885757043E-1
5.413208010E-1,-7.641816139E-2,7.943296432E-2,-2.790794373E-1,3.000577670E-1
5.462951660E-1,-2.069163322E-2,6.159615517E-2,-2.429552078E-1,2.514944592E-1
5.512695310E-1,1.968145370E-2,7.672476768E-2,-2.089939117E-1,2.235005699E-1
5.562438970E-1,5.194878578E-2,3.288054466E-2,-2.489166260E-1,2.563967497E-1
5.611877440E-1,7.027173042E-2,1.170468330E-2,-2.653131485E-1,2.747110891E-1
5.661621100E-1,-5.192232132E-2,-2.248980999E-1,6.673717499E-2,2.402684609E-1
5.711364750E-1,8.267641068E-3,9.262728691E-2,1.178417206E-1,1.501160860E-1
5.761108400E-1,-2.087354660E-3,8.428287506E-2,-1.192016602E-1,1.460034104E-1
5.810546880E-1,-1.689529419E-2,1.684193611E-1,-4.058475494E-1,4.397303328E-1
5.860290530E-1,-2.026267052E-1,1.530785561E-1,-7.866516113E-1,8.266265079E-1
5.910034180E-1,-3.560748100E-1,1.522688866E-1,-1.017661095E0,1.088856826E0
5.959777830E-1,-5.213179588E-1,1.278333664E-1,-1.187465668E0,1.303145616E0
6.009216310E-1,-7.035017014E-1,5.769848824E-2,-1.151544571E0,1.350666005E0
6.058959960E-1,-1.035412312E0,-7.935397625E-1,-6.432466507E-1,1.454493129E0
6.108703610E-1,-7.651426792E-1,-8.583915234E-1,-2.535896301E-1,1.177534300E0
6.158142090E-1,-5.568487644E-1,-6.849217415E-1,-1.297893524E-1,8.922127630E-1
6.207885740E-1,-5.077376366E-1,-6.513044834E-1,1.821804047E-2,8.260308316E-1
6.257629400E-1,-5.907828808E-1,-5.600268841E-1,-4.260349274E-2,8.151500357E-1
6.307373050E-1,-7.064054012E-1,-4.604504108E-1,-8.882713318E-2,8.478876289E-1
6.356811520E-1,-8.308234215E-1,-4.057958126E-1,-8.319187164E-2,9.283634454E-1
6.406555180E-1,-1.016539574E0,-3.697562218E-1,-1.285543442E-1,1.089311061E0
6.456298830E-1,-1.185676098E0,-2.987699509E-1,-2.222251892E-1,1.242769217E0
6.506042480E-1,-1.328520060E0,-3.055317402E-1,-3.430719376E-1,1.405707490E0
6.555480960E-1,-1.473521471E0,-3.798766136E-1,-3.251819611E-1,1.556057542E0
6.605224610E-1,-1.501048803E0,-3.036713600E-1,-3.533639908E-1,1.571696509E0
6.654968260E-1,-1.436360836E0,-1.258785725E-1,-4.978256226E-1,1.525387891E0
6.704406740E-1,-1.431725740E0,6.890296936E-5,-6.642351151E-1,1.578305068E0
6.754150390E-1,-1.340405703E0,8.778762817E-2,-8.530111313E-1,1.591232888E0
6.803894040E-1,-1.372365952E0,7.972049713E-2,-1.078245163E0,1.747099394E0
6.853637700E-1,-1.206631422E0,1.266853809E-1,-8.344964981E-1,1.472546427E0
6.903076170E-1,-9.856622219E-1,3.626294136E-1,-7.689762115E-1,1.301673738E0
6.952819830E-1,-1.030519724E0,3.688414097E-1,-7.642993927E-1,1.334978819E0
7.002563480E-1,-1.142764091E0,1.165232658E-1,-4.055700302E-1,1.218184916E0
7.052307130E-1,-1.290639877E0,-1.460287571E-1,1.481990814E-1,1.307302053E0
7.101745610E-1,-1.405308723E0,-2.709345818E-1,6.900157928E-1,1.588842330E0
7.151489260E-1,-1.615629196E0,-2.946524620E-1,1.102096558E0,1.977800444E0
7.201232910E-1,-1.986267090E0,-2.449939251E-1,1.448356628E0,2.470428282E0
7.250976560E-1,-2.428034306E0,-2.482061386E-1,1.401906013E0,2.814657590E0
7.300415040E-1,-2.624847412E0,-2.787401676E-1,9.279994965E-1,2.797981966E0
7.350158690E-1,-2.726665020E0,-3.277361393E-1,5.540294647E-1,2.801617703E0
7.399902350E-1,-2.880225182E0,-3.729407787E-1,6.829023361E-1,2.983477421E0
7.449646000E-1,-2.945642471E0,-5.349633694E-1,6.244688034E-1,3.058260398E0
7.499084470E-1,-3.011686325E0,-7.296047211E-1,6.813545227E-1,3.172825485E0
7.548828130E-1,-2.792780399E0,-7.782096863E-1,8.105154037E-1,3.010343484E0
7.598571780E-1,-2.555452824E0,-7.161245346E-1,1.494085312E0,3.045564710E0
7.648315430E-1,-2.179166794E0,-5.456643105E-1,1.977562904E0,2.992870277E0
7.697753910E-1,-2.021889210E0,-1.946946383E-1,2.714343548E0,3.390221656E0
7.747497560E-1,-2.146288872E0,6.940269470E-2,3.701814651E0,4.279579929E0
7.797241210E-1,-1.803427219E0,6.090259552E-2,4.189036369E0,4.561149479E0
7.846984860E-1,-1.117102623E0,-5.551874638E-2,4.299907684E0,4.442995239E0
7.896423340E-1,-4.219226837E-1,-2.125250101E-1,3.521997929E0,3.553541197E0
7.946166990E-1,8.029317856E-2,-3.239750862E-3,2.649433136E0,2.650651511E0
7.995910650E-1,-7.551746368E-1,-2.337944508E-2,2.205386639E0,2.331215468E0
8.045349120E-1,-1.810892582E0,-9.639053345E-1,2.627147675E0,3.333219216E0
8.095092770E-1,-1.839175224E0,-1.746451259E0,1.650908470E0,3.026244584E0
8.144836430E-1,-2.124604225E0,-1.994128108E0,4.491620064E-1,2.948259916E0
8.194580080E-1,-2.099725723E0,-1.884457469E0,-5.484199524E-2,2.821885134E0
8.244018560E-1,-1.741213322E0,-1.773502350E0,-1.656336784E-1,2.490897214E0
8.293762210E-1,-1.363438606E0,-1.686952591E0,-2.892508507E-1,2.188250427E0
8.343505860E-1,-1.066164017E0,-1.748097301E0,-4.067144394E-1,2.087574314E0
8.393249510E-1,-7.474198341E-1,-1.879148483E0,-4.331617355E-1,2.068203210E0
8.442687990E-1,-5.606703758E-1,-1.962898612E0,-4.488105774E-1,2.090156254E0
8.492431640E-1,-3.759593964E-1,-1.966764450E0,-4.954905510E-1,2.062769681E0
8.542175290E-1,-2.425956726E-1,-1.894253612E0,-4.852786064E-1,1.970417400E0
8.591918950E-1,-7.466077805E-2,-1.889751077E0,-6.336021423E-1,1.994538803E0
8.641357420E-1,9.841251373E-2,-1.921450377E0,-8.132429123E-1,2.088784481E0
8.691101080E-1,1.828050613E-1,-1.846616268E0,-8.312082291E-1,2.033301860E0
8.740844730E-1,2.622356415E-1,-1.704327464E0,-7.348036766E-1,1.874416197E0
8.790588380E-1,2.364683151E-1,-1.617319226E0,-5.884547234E-1,1.737215503E0
8.840026860E-1,2.165908813E-1,-1.513459921E0,-4.293746948E-1,1.588028706E0
8.889770510E-1,3.987216949E-2,-1.593712807E0,-3.265833855E-1,1.627318963E0
8.939514160E-1,-1.433029175E-1,-1.783731222E0,-1.229338646E-1,1.793696054E0
8.989257810E-1,-1.291894913E-1,-1.767146349E0,-3.309488297E-2,1.772171384E0
9.039001470E-1,-1.771736145E-1,-1.780198097E0,-7.570552826E-2,1.790594058E0
9.088439940E-1,5.025196075E-2,-1.745566726E0,-1.809043884E-1,1.755635170E0
9.138183600E-1,-8.335018158E-2,-1.895615935E0,-1.704010963E-1,1.905083610E0
9.187622070E-1,-1.118822098E-1,-1.989373326E0,-6.970620155E-2,1.993735894E0
9.237365720E-1,-2.994518280E-1,-2.105484247E0,-8.253931999E-2,2.128273491E0
9.287109380E-1,-4.829044342E-1,-2.133343935E0,-9.791374207E-2,2.189506825E0
9.336853030E-1,-5.638771057E-1,-2.009208202E0,6.853103638E-3,2.086844976E0
9.386291510E-1,-5.368432999E-1,-1.959949493E0,1.873028278E-1,2.040756011E0
9.436035160E-1,-5.819196701E-1,-2.097691536E0,3.891408443E-1,2.211418296E0
9.485778810E-1,-6.590757370E-1,-2.251731396E0,6.633732319E-1,2.438183576E0
9.535522460E-1,-2.275876999E-1,-2.028747559E0,8.765819073E-1,2.221713001E0
9.584960940E-1,-3.310070038E-1,-2.366524935E0,9.623472691E-1,2.576066414E0
9.634704590E-1,-7.309465408E-1,-2.839403868E0,1.325869083E0,3.217829392E0
9.684448240E-1,-1.198687553E0,-3.101969242E0,1.693887711E0,3.732066533E0
9.734191900E-1,-1.351766586E0,-3.111117601E0,2.076402903E0,3.977156603E0
9.783630370E-1,-1.242503166E0,-3.114227057E0,2.100375891E0,3.956488741E0
9.833374020E-1,-1.301280975E0,-3.215248823E0,1.923841238E0,3.966399158E0
9.883117680E-1,-1.467116356E0,-3.308280945E0,1.818925142E0,4.050387868E0
9.932861330E-1,-1.744258881E0,-3.384104252E0,1.820872784E0,4.220210697E0
9.982299810E-1,-2.020464897E0,-3.457291365E0,1.943160534E0,4.450956621E0
1.003204346E0,-2.175809860E0,-3.628623009E0,2.093843937E0,4.720724088E0
1.008178711E0,-2.283556938E0,-3.849256992E0,2.248397589E0,5.008662836E0
1.013153076E0,-2.336771965E0,-4.028345585E0,2.400509119E0,5.239323945E0
1.018096924E0,-2.418997765E0,-4.155836105E0,2.451155901E0,5.397285352E0
1.023071289E0,-2.085671425E0,-3.898466110E0,2.416758537E0,5.038728523E0
1.028045654E0,-2.155746460E0,-4.252973080E0,2.361986637E0,5.321090461E0
1.032989502E0,-2.486374855E0,-4.798253059E0,2.507374048E0,5.957534470E0
1.037963867E0,-2.956666946E0,-5.148166180E0,2.594820499E0,6.479088506E0
1.042938233E0,-3.026566505E0,-5.111435413E0,2.677696943E0,6.515898842E0
1.047912598E0,-2.976583481E0,-5.004690170E0,2.526582241E0,6.347486963E0
1.052856445E0,-2.863647461E0,-5.105900764E0,2.365458012E0,6.313960010E0
1.057830811E0,-2.766335487E0,-5.302976608E0,2.180763483E0,6.366309944E0
1.062805176E0,-2.634626389E0,-5.504889011E0,2.087481022E0,6.450010562E0
1.067779541E0,-2.529720306E0,-5.571210384E0,1.846494794E0,6.391198088E0
1.072723389E0,-2.414684296E0,-5.642441273E0,1.574639559E0,6.336192351E0
1.077697754E0,-2.182508469E0,-5.748960972E0,1.393369794E0,6.305186346E0
1.082672119E0,-1.892796516E0,-5.842420101E0,1.277566314E0,6.272856365E0
1.087646485E0,-1.658530235E0,-5.918449879E0,1.046825647E0,6.234951118E0
1.092590332E0,-1.417620659E0,-5.895143032E0,7.805576324E-1,6.113233998E0
1.097564697E0,-1.143292427E0,-5.857834816E0,6.047531366E-1,5.998922625E0
1.102539063E0,-1.033046722E0,-5.861247540E0,4.464991391E-1,5.968313810E0
1.107513428E0,-9.281969070E-1,-5.957201958E0,3.682233691E-1,6.040313991E0
1.112457276E0,-8.787631989E-1,-5.967600346E0,3.565303385E-1,6.042482315E0
1.117431641E0,-8.115911484E-1,-5.963291645E0,3.686159849E-1,6.029544359E0
1.122406006E0,-7.541589737E-1,-5.967371464E0,5.571054220E-1,6.040583117E0
1.127380371E0,-6.796836853E-1,-5.925284863E0,7.949339151E-1,6.016883790E0
1.132324219E0,-6.594638824E-1,-6.032791138E0,9.172062278E-1,6.137648474E0
1.137298584E0,-6.241970062E-1,-6.014004230E0,1.032023787E0,6.133754306E0
1.142272949E0,-5.963897705E-1,-5.991387367E0,1.041776776E0,6.110458428E0
1.147247315E0,-5.937080383E-1,-6.054035187E0,1.117563725E0,6.184883180E0
1.152191162E0,-5.772132874E-1,-6.086190701E0,1.165858746E0,6.223674079E0
1.157165527E0,-5.833530426E-1,-6.144803524E0,1.210706592E0,6.290049409E0
1.162139893E0,-5.510387421E-1,-6.163765907E0,1.258909106E0,6.315101424E0
1.167114258E0,-5.043315887E-1,-6.217938423E0,1.213757873E0,6.355337659E0
1.172088623E0,-4.439086914E-1,-6.286431313E0,1.122872353E0,6.401337040E0
1.177032471E0,-3.139219284E-1,-6.469722748E0,1.097114801E0,6.569590573E0
1.182006836E0,-1.877040863E-1,-6.694073677E0,1.190175891E0,6.801644938E0
1.186950684E0,-3.806114197E-2,-6.877083778E0,1.322454095E0,7.003186045E0
1.191925049E0,7.439041138E-2,-7.068953514E0,1.531073093E0,7.233244261E0
1.196899414E0,2.187690735E-1,-7.408795357E0,1.687885880E0,7.601780534E0
1.201873779E0,3.271188736E-1,-7.749329090E0,1.659351587E0,7.931743553E0
1.206817627E0,4.216403961E-1,-8.012783051E0,1.561687589E0,8.174432149E0
1.211791992E0,4.717731476E-1,-8.113417625E0,1.341677308E0,8.237124102E0
1.216766358E0,4.444580078E-1,-8.131301880E0,1.131747127E0,8.221706924E0
1.221740723E0,4.575071335E-1,-8.097818375E0,9.439675808E-1,8.165479165E0
1.226684570E0,4.713611603E-1,-8.162631035E0,6.899161339E-1,8.205285554E0
1.231658936E0,3.735532761E-1,-8.203838348E0,4.149297476E-1,8.222814141E0
1.236633301E0,2.424631119E-1,-8.198138237E0,2.430304289E-1,8.205322827E0
1.241607666E0,9.981155396E-2,-8.162048340E0,2.896341085E-1,8.167795502E0
1.246551514E0,3.389358521E-2,-8.276715279E0,4.560052156E-1,8.289336845E0
1.251525879E0,3.079414368E-2,-8.607259750E0,5.463155508E-1,8.624635028E0
1.256500244E0,2.325725555E-2,-8.810236931E0,5.277785063E-1,8.826061739E0
1.261444092E0,3.253192902E-1,-8.521005630E0,4.273084402E-1,8.537913217E0
1.266418457E0,2.990550995E-1,-8.597185135E0,3.664755821E-1,8.610187602E0
1.271392822E0,-3.172874451E-3,-9.247461319E0,7.339664698E-1,9.276543413E0
1.276367188E0,-1.933698654E-1,-9.573769569E0,9.487901926E-1,9.622611834E0
1.281311035E0,9.388160706E-2,-9.220932007E0,9.634968042E-1,9.271608648E0
1.286285401E0,2.970342636E-1,-8.870324135E0,6.606433392E-1,8.899849956E0
1.291259766E0,3.042640686E-1,-8.943344116E0,2.908707857E-1,8.953244463E0
1.296234131E0,2.857017517E-1,-9.051568031E0,1.856135130E-1,9.057977793E0
1.301177979E0,3.433027267E-1,-9.135620117E0,1.144170761E-1,9.142784201E0
1.306152344E0,3.605041504E-1,-9.215221405E0,-3.298103809E-2,9.222329236E0
1.311126709E0,3.952035904E-1,-9.169130325E0,-1.233322620E-1,9.178471967E0
1.316101074E0,4.585828781E-1,-9.069664955E0,-2.217683792E-1,9.083958491E0
1.321044922E0,9.231290817E-1,-8.768006325E0,-3.675565720E-1,8.824126022E0
1.326019287E0,9.177770615E-1,-9.191518784E0,-4.241880178E-1,9.246959920E0
1.330993652E0,4.856920242E-1,-1.002447319E1,-2.956049442E-1,1.004058473E1
1.335968018E0,2.291107178E-1,-1.028601646E1,-2.584331036E-1,1.029181296E1
1.340911865E0,4.367647171E-1,-9.889431000E0,-2.216044664E-1,9.901551265E0
1.345886231E0,5.409879684E-1,-9.681348801E0,-3.891443014E-1,9.704257616E0
1.350860596E0,4.331102371E-1,-1.004857922E1,-6.139853001E-1,1.007663171E1
1.355804444E0,3.126850128E-1,-1.043669128E1,-8.296670914E-1,1.047428491E1
1.360778809E0,2.173118591E-1,-1.056435871E1,-9.914833307E-1,1.061300799E1
1.365753174E0,9.574413300E-2,-1.049104500E1,-1.252152443E0,1.056593951E1
1.370727539E0,3.112878799E-1,-9.933087349E0,-1.560737491E0,1.005977266E1
1.375701904E0,2.925453186E-1,-9.927936554E0,-1.765536189E0,1.008794454E1
1.380645752E0,-2.101516724E-1,-1.076670456E1,-1.685000181E0,1.089978515E1
1.385620117E0,-5.776329041E-1,-1.111517715E1,-1.738120914E0,1.126507378E1
1.390594483E0,-5.967025757E-1,-1.082508850E1,-1.936303854E0,1.101307712E1
1.395538330E0,-6.466875076E-1,-1.046141434E1,-2.277565956E0,1.072598254E1
1.400512695E0,-9.331607819E-1,-1.037700844E1,-2.565856457E0,1.073017766E1
1.405487061E0,-1.257642746E0,-1.032721901E1,-2.735136271E0,1.075704830E1
1.410461426E0,-1.533255577E0,-1.018964672E1,-2.866922379E0,1.069574761E1
1.415405274E0,-1.811150551E0,-1.012271690E1,-3.003855228E0,1.071320727E1
1.420379639E0,-2.045002937E0,-1.007522202E1,-3.219625950E0,1.077302775E1
1.425354004E0,-2.305656433E0,-1.006873989E1,-3.443506956E0,1.088821908E1
1.430328369E0,-2.549201012E0,-1.005261993E1,-3.641396523E0,1.099151318E1
1.435272217E0,-2.775803566E0,-9.991700172E0,-3.812134743E0,1.104859851E1
1.440246582E0,-2.989525795E0,-9.798421860E0,-3.939255476E0,1.097561247E1
1.445220947E0,-3.196549416E0,-9.593423843E0,-4.006244659E0,1.087665875E1
1.450195313E0,-3.429591179E0,-9.368653297E0,-4.137181282E0,1.080046431E1
1.455139160E0,-3.657017708E0,-9.168783188E0,-4.239580154E0,1.074310958E1
1.460113526E0,-3.882732391E0,-8.971490860E0,-4.388371468E0,1.071545908E1
1.465087891E0,-4.092412949E0,-8.796251297E0,-4.534218311E0,1.070892228E1
1.470031738E0,-4.265380859E0,-8.627962112E0,-4.595288754E0,1.066545277E1
1.475006104E0,-4.377584457E0,-8.500520706E0,-4.646370888E0,1.063065663E1
1.479980469E0,-4.477136612E0,-8.420896530E0,-4.678127766E0,1.062267057E1
1.484954834E0,-4.536614418E0,-8.375709534E0,-4.726796150E0,1.063371912E1
1.489898682E0,-4.657789230E0,-8.263435364E0,-4.801213741E0,1.063160467E1
1.494873047E0,-4.816972733E0,-8.067110062E0,-4.872973442E0,1.058429786E1
1.499847412E0,-4.922949791E0,-7.779834270E0,-4.967306614E0,1.046113717E1
1.504821777E0,-5.034263611E0,-7.543024540E0,-5.039364815E0,1.037478805E1
1.509765625E0,-5.073706627E0,-7.317635536E0,-5.027231216E0,1.022562186E1
1.514739990E0,-5.100260735E0,-7.157887459E0,-5.011306286E0,1.011737135E1
1.519714356E0,-5.072105408E0,-7.035926819E0,-5.108442783E0,1.006611679E1
1.524688721E0,-5.041983604E0,-6.937490940E0,-5.170557499E0,1.001424206E1
1.529632569E0,-5.033159256E0,-6.732385635E0,-5.214920044E0,9.892072559E0
1.534606934E0,-5.057869911E0,-6.505036354E0,-5.227890491E0,9.758503215E0
1.539581299E0,-5.094496727E0,-6.264166832E0,-5.165501118E0,9.585201344E0
1.544555664E0,-5.021496773E0,-6.079177380E0,-5.048550606E0,9.362675401E0
1.549499512E0,-4.950192451E0,-5.971692085E0,-5.039184570E0,9.249805014E0
1.554473877E0,-4.844547272E0,-5.862833023E0,-5.021565914E0,9.113647654E0
1.559448242E0,-4.848552704E0,-5.691270351E0,-4.905758381E0,8.942342357E0
1.564422608E0,-4.818828583E0,-5.465119839E0,-4.804925442E0,8.727883607E0
1.569366455E0,-4.789970398E0,-5.256473064E0,-4.699930668E0,8.524299019E0
1.574340820E0,-4.750912666E0,-5.102077484E0,-4.519156933E0,8.308137288E0
1.579315186E0,-4.667594910E0,-4.983052254E0,-4.384222031E0,8.114102219E0
1.584289551E0,-4.561030388E0,-4.917806625E0,-4.235782146E0,7.932822360E0
1.589233399E0,-4.481431007E0,-4.858494282E0,-4.095787048E0,7.775838354E0
1.594207764E0,-4.453979492E0,-4.791876316E0,-3.976788759E0,7.656034272E0
1.599182129E0,-4.459300995E0,-4.677754879E0,-3.813512325E0,7.503974435E0
1.604125977E0,-4.425666809E0,-4.636710167E0,-3.658132792E0,7.380212964E0
1.609100342E0,-4.364634514E0,-4.675242424E0,-3.570199966E0,7.324906413E0
1.614074707E0,-4.354380608E0,-4.784523010E0,-3.445834160E0,7.329806544E0
1.619049072E0,-4.329185486E0,-4.860673428E0,-3.348461151E0,7.319848716E0
1.623992920E0,-4.216156006E0,-4.932867050E0,-3.231616020E0,7.249309685E0
1.628967285E0,-4.315861702E0,-5.014387131E0,-3.130906105E0,7.319379316E0
1.633941651E0,-4.512931824E0,-4.974362850E0,-3.192444801E0,7.436567973E0
1.638916016E0,-4.575791359E0,-4.886047363E0,-3.223553658E0,7.429846807E0
1.643859863E0,-4.594749451E0,-4.927101135E0,-3.209600449E0,7.462545353E0
1.648834229E0,-4.664365768E0,-4.981632233E0,-3.291055679E0,7.576543751E0
1.653808594E0,-4.754483223E0,-4.901378632E0,-3.396310329E0,7.626502938E0
1.658782959E0,-4.837389946E0,-4.686961651E0,-3.429727554E0,7.558503959E0
1.663726807E0,-4.874859810E0,-4.573574543E0,-3.410963058E0,7.504432774E0
1.668701172E0,-4.943030357E0,-4.584929943E0,-3.609118938E0,7.647278680E0
1.673675537E0,-4.944963455E0,-4.536668777E0,-3.752146721E0,7.688473983E0
1.678649902E0,-4.979358673E0,-4.355048656E0,-3.909655571E0,7.684130938E0
1.683593750E0,-4.908222198E0,-4.200381279E0,-3.946083069E0,7.570034321E0
1.688568115E0,-4.827473640E0,-4.092994213E0,-4.022457123E0,7.499150931E0
1.693542481E0,-4.701870918E0,-4.065044880E0,-4.110894203E0,7.451954855E0
1.698516846E0,-4.535668373E0,-4.062072277E0,-4.222609043E0,7.409665708E0
1.703460694E0,-4.420335770E0,-4.063419342E0,-4.334927559E0,7.405561559E0
1.708435059E0,-4.322390556E0,-4.025124550E0,-4.435876846E0,7.386588601E0
1.713409424E0,-4.226865768E0,-3.938454390E0,-4.495517731E0,7.320348139E0
1.718353272E0,-4.124916077E0,-3.864576578E0,-4.581240654E0,7.275826461E0
1.723327637E0,-3.972962379E0,-3.818846226E0,-4.640815258E0,7.204525163E0
1.728302002E0,-3.820838928E0,-3.796044588E0,-4.699876308E0,7.148258665E0
1.733276367E0,-3.711573601E0,-3.847482204E0,-4.777517319E0,7.169628278E0
1.738220215E0,-3.620136261E0,-3.841940880E0,-4.803751945E0,7.137361489E0
1.743194580E0,-3.511171341E0,-3.852770329E0,-4.826634884E0,7.104123288E0
1.748168945E0,-3.390115738E0,-3.871025085E0,-4.856988907E0,7.075878827E0
1.753143311E0,-3.300650597E0,-3.813257694E0,-4.831162453E0,6.983935799E0
1.758117676E0,-3.247475624E0,-3.817671776E0,-4.811945915E0,6.948060104E0
1.763061524E0,-3.139078140E0,-3.770009995E0,-4.836742401E0,6.889184566E0
1.768035889E0,-3.024613380E0,-3.763585091E0,-4.860165119E0,6.850844023E0
1.773010254E0,-2.918509483E0,-3.853503704E0,-4.928992748E0,6.903778524E0
1.777954102E0,-2.821445465E0,-3.909067154E0,-4.928295135E0,6.894160824E0
1.782928467E0,-2.713692665E0,-3.872975349E0,-4.950092316E0,6.845982754E0
1.787902832E0,-2.598834991E0,-3.829672813E0,-4.880237579E0,6.725849835E0
1.792877197E0,-2.375768661E0,-3.843048096E0,-4.840494633E0,6.621456312E0
1.797821045E0,-2.166069984E0,-3.999226570E0,-4.806767464E0,6.617453119E0
1.802795410E0,-1.985121727E0,-4.304832935E0,-4.823148727E0,6.762770033E0
1.807769776E0,-1.878487587E0,-4.480043888E0,-4.825366974E0,6.847165493E0
1.812744141E0,-1.881861687E0,-4.474617958E0,-4.801177025E0,6.827511267E0
1.817687988E0,-1.874919891E0,-4.536673546E0,-4.783854961E0,6.854341672E0
1.822662354E0,-1.898166656E0,-4.669261456E0,-4.789264202E0,6.952847675E0
1.827636719E0,-1.917991638E0,-4.907845497E0,-4.821504593E0,7.142306762E0
1.832611084E0,-1.966711044E0,-5.074340343E0,-4.834932804E0,7.279660533E0
1.837554932E0,-2.019726753E0,-5.152709007E0,-4.938829899E0,7.417664527E0
1.842529297E0,-2.083997726E0,-5.278348446E0,-5.026183605E0,7.580668208E0
1.847503662E0,-2.113556862E0,-5.452377796E0,-5.094001770E0,7.755282089E0
1.852447510E0,-2.192658424E0,-5.629261971E0,-5.095812798E0,7.903394800E0
1.857421875E0,-2.305438042E0,-5.628353119E0,-5.171998978E0,7.983919891E0
1.862396240E0,-2.341258049E0,-5.590219498E0,-5.191028595E0,7.979901074E0
1.867370606E0,-2.415380478E0,-5.589863300E0,-5.297260761E0,8.071035011E0
1.872344971E0,-2.487044334E0,-5.681440830E0,-5.432885647E0,8.245023098E0
1.877288819E0,-2.539628983E0,-5.749550343E0,-5.573294163E0,8.400515004E0
1.882263184E0,-2.472056389E0,-5.822490215E0,-5.644027233E0,8.477470053E0
1.887237549E0,-2.211911201E0,-6.002410889E0,-5.628115177E0,8.520397179E0
1.892181397E0,-1.892750740E0,-6.382481575E0,-5.733464241E0,8.785851616E0
1.897155762E0,-1.604798317E0,-6.798343182E0,-5.994213104E0,9.204533578E0
1.902130127E0,-1.389579773E0,-7.141870499E0,-6.359087944E0,9.663086756E0
1.907104492E0,-1.253705025E0,-7.439366817E0,-6.728723049E0,1.010898950E1
1.912048340E0,-1.167457581E0,-7.781659126E0,-7.037047386E0,1.055638252E1
1.917022705E0,-1.120113373E0,-8.252571106E0,-7.314198494E0,1.108409146E1
1.921997070E0,-1.164849281E0,-8.847291946E0,-7.591478825E0,1.171588662E1
1.926971436E0,-1.406608582E0,-9.390720367E0,-7.909315109E0,1.235805172E1
1.931915283E0,-1.814003944E0,-9.685214043E0,-8.187174797E0,1.281108163E1
1.936889649E0,-2.297652245E0,-9.761451721E0,-8.371757507E0,1.306336363E1
1.941864014E0,-2.699563026E0,-9.804885864E0,-8.569471359E0,1.329884456E1
1.946838379E0,-2.973807335E0,-9.938505173E0,-8.824973106E0,1.361974910E1
1.951782227E0,-3.175755501E0,-1.016896439E1,-9.073394775E0,1.399356111E1
1.956756592E0,-3.263486862E0,-1.030614853E1,-9.208717346E0,1.420096895E1
1.961730957E0,-3.155913353E0,-1.051538467E1,-9.228562355E0,1.434222671E1
1.966674805E0,-2.727521896E0,-1.093195915E1,-9.200297356E0,1.454622212E1
1.971649170E0,-2.011157036E0,-1.167196274E1,-9.320469856E0,1.507151701E1
1.976623535E0,-1.262797356E0,-1.248070335E1,-9.606820107E0,1.580043056E1
1.981597901E0,-4.065856934E-1,-1.318866158E1,-9.983939171E0,1.654645423E1
1.986541748E0,2.996044159E-1,-1.388714695E1,-1.033525467E1,1.731358144E1
1.991516113E0,8.266601562E-1,-1.470298195E1,-1.071445847E1,1.821155308E1
1.996490479E0,1.232093811E0,-1.544074440E1,-1.121748638E1,1.912502663E1
2.001464844E0,1.594496727E0,-1.544064140E1,-1.167982101E1,1.942611762E1
2.006408692E0,1.764652252E0,-1.541403770E1,-1.205444813E1,1.964729690E1
2.011383057E0,1.843186378E0,-1.541461945E1,-1.230676842E1,1.981071371E1
2.016357422E0,1.878297806E0,-1.541534424E1,-1.247907448E1,1.992205161E1
2.021331787E0,1.992789268E0,-1.542144108E1,-1.270232964E1,2.007837723E1
2.026275635E0,2.088164330E0,-1.543475342E1,-1.293477726E1,2.024599976E1
2.031250000E0,2.124324799E0,-1.545607185E1,-1.307584953E1,2.035634432E1
2.036224365E0,2.138474464E0,-1.548496246E1,-1.308013630E1,2.038251950E1
2.041198731E0,2.247060776E0,-1.552115822E1,-1.302938938E1,2.038922809E1
2.046142578E0,2.568744659E0,-1.556413078E1,-1.292568111E1,2.039396598E1
2.051116944E0,3.212939262E0,-1.561515045E1,-1.271518421E1,2.039195459E1
2.056091309E0,4.065840721E0,-1.567441368E1,-1.251796913E1,2.046748290E1
2.061065674E0,5.061675072E0,-1.574280167E1,-1.233083630E1,2.062779393E1
2.066009522E0,6.168728828E0,-1.582049561E1,-1.208191681E1,2.084020178E1
2.070983887E0,7.290936470E0,-1.590988731E1,-1.194871902E1,2.119089793E1
2.075958252E0,8.302404404E0,-1.601143265E1,-1.195606422E1,2.163893172E1
2.080932617E0,9.393341064E0,-1.612602615E1,-1.191155815E1,2.213975595E1
2.085876465E0,1.000416279E1,-1.625424957E1,-1.195627594E1,2.252191015E1
2.090850830E0,9.920449257E0,-1.639923668E1,-1.214461803E1,2.269013055E1
2.095825195E0,9.824357033E0,-1.656107330E1,-1.227188683E1,2.283388592E1
2.100769043E0,9.757820129E0,-1.673994827E1,-1.230464458E1,2.295310873E1
2.105743408E0,9.678832054E0,-1.693981934E1,-1.250527477E1,2.317367399E1
2.110717774E0,9.601181030E0,-1.716123772E1,-1.291200352E1,2.352468049E1
2.115692139E0,9.524435997E0,-1.740644073E1,-1.336266041E1,2.392195129E1
2.120635986E0,9.448457718E0,-1.767574501E1,-1.370206165E1,2.427862864E1
2.125610352E0,9.372596741E0,-1.797463799E1,-1.384623146E1,2.454895733E1
2.130584717E0,9.297190666E0,-1.830317497E1,-1.384296131E1,2.476028163E1
2.135559082E0,9.222785950E0,-1.866251564E1,-1.358222389E1,2.485610743E1
2.140502930E0,9.150730133E0,-1.905055046E1,-1.291977310E1,2.477054444E1
2.145477295E0,9.081825256E0,-1.947207260E1,-1.210277748E1,2.466005645E1
2.150451660E0,9.017771721E0,-1.992376137E1,-1.110553932E1,2.452772875E1
2.155426026E0,8.960726738E0,-2.040496254E1,-9.837968826E0,2.436068042E1
2.160369873E0,8.912349701E0,-2.091035843E1,-8.249469757E0,2.418112524E1
2.165344238E0,8.872409821E0,-2.144397354E1,-6.399215221E0,2.407308897E1
2.170318604E0,8.841157913E0,-2.199856377E1,-5.070808411E0,2.424491656E1
2.175292969E0,8.821149826E0,-2.257028198E1,-4.390637875E0,2.462738342E1
2.180236817E0,8.819191933E0,-2.315243721E1,-3.989158154E0,2.509435948E1
2.185211182E0,8.844649315E0,-2.374894714E1,-3.768427849E0,2.562111161E1
2.190185547E0,8.906662941E0,-2.434970856E1,-3.265928268E0,2.613241740E1
2.195159912E0,9.014208794E0,-2.494669914E1,-2.622696161E0,2.665468614E1
2.200103760E0,9.175403595E0,-2.552710533E1,-2.164272308E0,2.721222542E1
2.205078125E0,9.402211189E0,-2.608947945E1,-1.996540070E0,2.780375308E1
2.210052490E0,9.702195168E0,-2.662021255E1,-1.911686420E0,2.839758533E1
2.214996338E0,1.007797146E1,-2.710560036E1,-1.848274946E0,2.897749471E1
2.219970703E0,1.044164085E1,-2.754251480E1,-1.917973995E0,2.951773381E1
2.224945069E0,8.894214630E0,-2.791883659E1,-2.197317362E0,2.938361268E1
2.229919434E0,5.889938831E0,-2.822671127E1,-2.500195026E0,2.894286758E1
2.234863281E0,3.400398731E0,-2.845859146E1,-2.490295410E0,2.876900608E1
2.239837647E0,1.208769321E0,-2.861547852E1,-2.139088154E0,2.872076656E1
2.244812012E0,-7.694854736E-1,-2.869564819E1,-1.642341614E0,2.875290627E1
2.249786377E0,-2.351231575E0,-2.870232010E1,-1.122785568E0,2.882034206E1
2.254730225E0,-3.574955940E0,-2.864102554E1,-6.324315071E-1,2.887020304E1
2.259704590E0,-4.490291595E0,-2.851878357E1,-6.777763367E-3,2.887011917E1
2.264678955E0,-5.199080467E0,-2.834327698E1,7.027039528E-1,2.882473903E1
2.269653320E0,-5.825366020E0,-2.812295723E1,1.233855247E0,2.874644346E1
2.274627686E0,-6.442692280E0,-2.786598778E1,1.438180447E0,2.863721218E1
2.279571533E0,-7.020473480E0,-2.758116150E1,1.558717728E0,2.850328259E1
2.284545899E0,-7.570764542E0,-2.727262306E1,1.349698067E0,2.833609234E1
2.289520264E0,-7.916784763E0,-2.694773483E1,9.346752167E-1,2.810212646E1
2.294464111E0,-8.162701607E0,-2.661321449E1,4.559450150E-1,2.784063162E1
2.299438477E0,-8.263116837E0,-2.627000237E1,6.037235260E-2,2.753898635E1
2.304412842E0,-8.127015114E0,-2.592380905E1,-3.301067352E-1,2.716985868E1
2.309387207E0,-7.713018894E0,-2.557770157E1,-7.394018173E-1,2.672557189E1
2.314361572E0,-7.053338051E0,-2.523416901E1,-9.634046555E-1,2.621909632E1
2.319305420E0,-6.187781334E0,-2.489688492E1,-1.118481636E0,2.567867827E1
2.324279785E0,-5.203455925E0,-2.456357193E1,-1.164160728E0,2.513563784E1
2.329254151E0,-4.141658783E0,-2.423697472E1,-1.125051498E0,2.461402084E1
2.334228516E0,-3.069587946E0,-2.391744232E1,-1.160217285E0,2.414151034E1
2.339172363E0,-2.101313353E0,-2.360651970E1,-1.214630127E0,2.373096324E1
2.344146729E0,-1.383888960E0,-2.330058289E1,-1.334631920E0,2.337976804E1
2.349090576E0,-1.017498255E0,-2.300223541E1,-1.510155678E0,2.307420003E1
2.354064942E0,-8.821346760E-1,-2.270848465E1,-1.672577858E0,2.278707865E1
2.359039307E0,-8.209867477E-1,-2.232097626E1,-1.897905350E0,2.241655739E1
2.364013672E0,-8.351695538E-1,-2.139817429E1,-2.067109108E0,2.151400267E1
2.368957520E0,-9.047372341E-1,-2.046809769E1,-2.170729637E0,2.060275806E1
2.373931885E0,-1.126945496E0,-1.930229187E1,-2.062641144E0,1.944486992E1
2.378906250E0,-1.302103043E0,-1.824084473E1,-1.869500160E0,1.838257108E1
2.383880615E0,-1.538934231E0,-1.720354843E1,-1.610391617E0,1.734715419E1
2.388824463E0,-1.716160297E0,-1.623370171E1,-1.215703964E0,1.636936814E1
2.393798828E0,-1.910048962E0,-1.539605999E1,-7.771825790E-1,1.553354316E1
2.398773194E0,-2.018560410E0,-1.460105705E1,-3.819265366E-1,1.474487440E1
2.403747559E0,-2.068781853E0,-1.380288315E1,-1.318159103E-1,1.395767950E1
2.408691406E0,-2.174012661E0,-1.291992569E1,1.060409546E-1,1.310198670E1
2.413665772E0,-2.284737110E0,-1.195508194E1,3.801345825E-1,1.217737698E1
2.418640137E0,-2.395970821E0,-1.118007278E1,6.582374573E-1,1.145285904E1
2.423583985E0,-2.560228825E0,-1.046299934E1,8.994121552E-1,1.080916598E1
2.428558350E0,-2.613311768E0,-9.637358665E0,9.786844254E-1,1.003323994E1
2.433532715E0,-2.642571926E0,-8.776197433E0,9.707727432E-1,9.216682022E0
2.438507080E0,-2.647903442E0,-7.944936752E0,8.745498657E-1,8.420109863E0
2.443450928E0,-2.676302433E0,-7.167218685E0,8.177757263E-1,7.694178028E0
2.448425293E0,-2.671170235E0,-6.471463203E0,7.770252228E-1,7.044058107E0
2.453399658E0,-2.587245941E0,-5.911412239E0,7.686738968E-1,6.498422561E0
2.458374024E0,-2.474230289E0,-5.482695580E0,7.489395142E-1,6.061573784E0
2.463317871E0,-2.370027065E0,-5.171950340E0,7.627573013E-1,5.740025898E0
2.468292236E0,-2.207170010E0,-4.842659950E0,7.751302719E-1,5.378083468E0
2.473266602E0,-2.098070145E0,-4.527636528E0,8.088293076E-1,5.055254268E0
2.478240967E0,-1.947009563E0,-4.275563240E0,8.720903397E-1,4.778266299E0
2.483184815E0,-1.723022938E0,-4.017598152E0,8.890590668E-1,4.460978478E0
2.488159180E0,-1.468376637E0,-3.735213280E0,8.471813202E-1,4.101909846E0
2.493133545E0,-1.228578091E0,-3.447169781E0,8.214168549E-1,3.750614519E0
2.498107910E0,-9.758739471E-1,-3.213183403E0,7.542762756E-1,3.441774287E0
2.503051758E0,-7.019319534E-1,-3.027977467E0,7.444486618E-1,3.196178940E0
2.508026123E0,-4.834833145E-1,-2.892583370E0,7.289009094E-1,3.021935010E0
2.513000488E0,-1.880707741E-1,-2.763421535E0,6.712760925E-1,2.849996630E0
2.517974854E0,8.105564117E-2,-2.638016224E0,6.691694260E-1,2.722771995E0
2.522918701E0,2.874002457E-1,-2.532602549E0,6.485929489E-1,2.630085053E0
2.527893067E0,4.707069397E-1,-2.400756359E0,6.221046448E-1,2.524323733E0
2.532867432E0,6.148095131E-1,-2.304248333E0,5.913867950E-1,2.457089632E0
2.537811279E0,7.204670906E-1,-2.224199533E0,5.242948532E-1,2.396042881E0
2.542785645E0,7.835993767E-1,-2.112929344E0,4.323968887E-1,2.294660207E0
2.547760010E0,8.049054146E-1,-1.982008457E0,3.559331894E-1,2.168621379E0
2.552734375E0,7.777771950E-1,-1.846291304E0,2.685356140E-1,2.021346165E0
2.557708740E0,6.839466095E-1,-1.675335169E0,1.699485779E-1,1.817529480E0
2.562652588E0,6.383032799E-1,-1.491760969E0,1.234798431E-1,1.627276602E0
2.567626953E0,6.412687302E-1,-1.314189911E0,6.433773041E-2,1.463714470E0
2.572601319E0,6.533660889E-1,-1.193775177E0,4.781341553E-2,1.361716763E0
2.577575684E0,6.175332069E-1,-1.071800470E0,-3.143024445E-2,1.237372769E0
2.582519531E0,5.909948349E-1,-9.228169918E-1,-3.629970551E-2,1.096441409E0
2.587493897E0,5.901212692E-1,-8.004295826E-1,-7.962608337E-2,9.976326690E-1
2.592468262E0,5.916657448E-1,-7.170333862E-1,-7.636356354E-2,9.327575378E-1
2.597412110E0,5.734066963E-1,-6.601164341E-1,3.304004669E-2,8.750089089E-1
2.602386475E0,6.021518707E-1,-6.530132294E-1,3.802871704E-2,8.890778011E-1
2.607360840E0,6.201300621E-1,-6.160092354E-1,-6.851196289E-3,8.741141864E-1
2.612335205E0,6.088604927E-1,-6.219112873E-1,-3.117561340E-3,8.703415812E-1
2.617279053E0,6.027331352E-1,-5.558881760E-1,-1.429271698E-2,8.200629111E-1
2.622253418E0,5.948457718E-1,-4.760065079E-1,-1.249752045E-1,7.720378809E-1
2.627227783E0,5.647850037E-1,-4.292552471E-1,-1.130294800E-1,7.183438111E-1
2.632202149E0,5.659527779E-1,-4.239280224E-1,-1.147766113E-1,7.163736354E-1
2.637145996E0,6.131749153E-1,-4.378385544E-1,-1.448650360E-1,7.672496042E-1
2.642120361E0,6.507325172E-1,-4.122974873E-1,-2.522449493E-1,8.105982614E-1
2.647094727E0,6.771779060E-1,-2.934019566E-1,-3.262920380E-1,8.069207635E-1
2.652069092E0,6.935615540E-1,-1.753809452E-1,-3.781270981E-1,8.091762524E-1
2.657012940E0,6.935052872E-1,-1.424369812E-1,-3.916072845E-1,8.090699242E-1
2.661987305E0,7.018537521E-1,-1.717555523E-1,-3.899621964E-1,8.210780558E-1
2.666961670E0,7.305970192E-1,-1.071739197E-1,-3.388738632E-1,8.124615367E-1
2.671905518E0,7.572622299E-1,-1.031119823E-1,-3.366174698E-1,8.350984892E-1
2.676879883E0,7.843818665E-1,-1.247465611E-1,-3.229913712E-1,8.574030807E-1
2.681854248E0,8.282933235E-1,-1.242291927E-1,-2.961072922E-1,8.883593026E-1
2.686828613E0,8.509068489E-1,-1.672573090E-1,-2.373685837E-1,8.990891599E-1
2.691772461E0,8.679304123E-1,-2.281005383E-1,-1.873989105E-1,9.167613691E-1
2.696746826E0,8.738794327E-1,-2.290794849E-1,-1.581983566E-1,9.171528735E-1
2.701721192E0,9.043917656E-1,-2.210078239E-1,-1.976346970E-1,9.517501759E-1
2.706695557E0,8.537478447E-1,-2.299799919E-1,-2.006349564E-1,9.066590124E-1
2.711639404E0,7.599644661E-1,-2.925462723E-1,-1.005449295E-1,8.205111785E-1
2.716613770E0,7.020144463E-1,-3.122985363E-1,-2.228927612E-2,7.686686350E-1
2.721588135E0,6.962656975E-1,-2.848284245E-1,2.234458923E-2,7.526037693E-1
2.726562500E0,6.886777878E-1,-1.606712341E-1,3.448486328E-3,7.071804811E-1
2.731506348E0,6.627511978E-1,-8.874249458E-2,-4.201793671E-2,6.699849905E-1
2.736480713E0,6.109189987E-1,-2.429962158E-3,-5.264759064E-2,6.131881412E-1
2.741455078E0,5.480232239E-1,3.721523285E-2,-6.799697876E-2,5.534781085E-1
2.746429444E0,4.576797485E-1,9.418892860E-2,-6.877136230E-2,4.723047816E-1
2.751373291E0,4.121417999E-1,1.389954090E-1,-8.410644531E-2,4.430061863E-1
2.756347656E0,4.011549950E-1,1.571536064E-1,-1.460742950E-1,4.549288798E-1
2.761322022E0,3.288097382E-1,1.657686234E-1,-8.273792267E-2,3.774130950E-1
2.766296387E0,2.446208000E-1,7.798409462E-2,-5.938625336E-2,2.635290912E-1
2.771240235E0,2.209362984E-1,-1.777267456E-2,-8.375549316E-2,2.369466154E-1
2.776214600E0,3.018431664E-1,-2.072954178E-2,-1.547546387E-1,3.398352677E-1
2.781188965E0,3.715071678E-1,-4.979610443E-3,-2.386569977E-1,4.415875166E-1
2.786132813E0,4.393367767E-1,-1.216020584E-1,-1.866960526E-1,4.926045879E-1
2.791107178E0,5.195231438E-1,-2.284379005E-1,-1.221685410E-1,5.805284866E-1
2.796081543E0,6.223311424E-1,-3.132081032E-1,-7.495117188E-2,7.007232299E-1
2.801055908E0,7.280678749E-1,-3.151130676E-1,-3.784275055E-2,7.942362052E-1
2.806030274E0,8.797683716E-1,-2.927780151E-1,2.029228210E-2,9.274282347E-1
2.810974121E0,1.086545944E0,-2.745096684E-1,7.978725433E-2,1.123522876E0
2.815948486E0,1.275537014E0,-2.385196686E-1,1.766395569E-1,1.309613622E0
2.820922852E0,1.438027859E0,-2.646811008E-1,2.967634201E-1,1.491994884E0
2.825866699E0,1.597714424E0,-2.928802967E-1,4.046096802E-1,1.673971100E0
2.830841065E0,1.737237930E0,-3.266742229E-1,4.613332748E-1,1.826893556E0
2.835815430E0,1.802974701E0,-3.957509995E-1,4.573965073E-1,1.901722427E0
2.840789795E0,1.851547241E0,-5.123207569E-1,4.890680313E-1,1.982394331E0
2.845733643E0,1.849950790E0,-5.940749645E-1,5.115814209E-1,2.009218390E0
2.850708008E0,1.719805241E0,-5.981943607E-1,5.901641846E-1,1.914121293E0
2.855682373E0,1.587532997E0,-6.246392727E-1,6.650695801E-1,1.831052371E0
2.860656738E0,1.408983707E0,-5.420641899E-1,7.261104584E-1,1.675202994E0
2.865600586E0,1.167714119E0,-3.684637547E-1,7.203683853E-1,1.420652108E0
2.870574951E0,9.398183823E-1,-2.214543819E-1,7.189149857E-1,1.203802057E0
2.875549317E0,6.857066154E-1,-1.056509018E-1,7.190942764E-1,9.992258273E-1
2.880493164E0,4.866647720E-1,-2.274012566E-2,7.870111465E-1,9.256058872E-1
2.885467529E0,3.134551048E-1,6.981754303E-2,8.159914017E-1,8.769096645E-1
2.890441895E0,1.936340332E-1,1.860575676E-1,8.179740906E-1,8.609257634E-1
2.895416260E0,7.359123230E-2,2.711515427E-1,8.736085892E-1,9.176768471E-1
2.900360108E0,-1.855182648E-2,3.493824005E-1,8.652687073E-1,9.333285423E-1
2.905334473E0,-4.309892654E-2,4.130997658E-1,8.637390137E-1,9.584122379E-1
2.910308838E0,-6.310033798E-2,3.977301121E-1,8.488378525E-1,9.395193423E-1
2.915283203E0,-1.575756073E-2,3.853161335E-1,7.877569199E-1,8.770848239E-1
2.920227051E0,1.638460159E-2,3.393824100E-1,6.823453903E-1,7.622624923E-1
2.925201416E0,1.104621887E-1,2.288126945E-1,6.117467880E-1,6.624132222E-1
2.930175781E0,1.211867332E-1,2.027122974E-1,6.010837555E-1,6.458174517E-1
2.935150147E0,1.757674217E-1,1.237282753E-1,6.320018768E-1,6.675546756E-1
2.940093994E0,2.575397491E-1,6.599593163E-2,5.407457352E-1,6.025679509E-1
2.945068360E0,3.324794769E-1,6.199121475E-2,4.946889877E-1,5.992517900E-1
2.950042725E0,3.991780281E-1,5.618643761E-2,4.482927322E-1,6.028817361E-1
2.955017090E0,4.461398125E-1,1.149783134E-1,4.272079468E-1,6.283051604E-1
2.959960938E0,5.013942719E-1,1.656327248E-1,4.003839493E-1,6.626746730E-1
2.964935303E0,5.839529037E-1,1.644444466E-1,3.624067307E-1,7.066693769E-1
2.969909668E0,6.406140327E-1,1.276152134E-1,3.371610641E-1,7.350847331E-1
2.974884033E0,6.562008858E-1,7.943630219E-3,1.873960495E-1,6.824807566E-1
2.979827881E0,6.485896111E-1,-3.886318207E-2,4.639053345E-2,6.514068714E-1
2.984802246E0,7.607893944E-1,1.109867096E-1,-4.238224030E-2,7.700096146E-1
2.989776611E0,9.368529320E-1,2.484683990E-1,-7.955646515E-2,9.725015129E-1
2.994750977E0,1.072721004E0,1.964843273E-1,-8.966159821E-2,1.094246611E0
2.999694824E0,1.187441826E0,2.475833893E-2,-7.577514648E-2,1.190114674E0
3.004669190E0,1.352574825E0,-1.333863735E-1,-4.019737244E-2,1.359730272E0
3.009643555E0,1.491344929E0,-2.187173367E-1,-5.117130280E-2,1.508166261E0
3.014587402E0,1.580218792E0,-2.635087967E-1,-3.096485138E-2,1.602338023E0
3.019561768E0,1.589170933E0,-3.787856102E-1,4.000949860E-2,1.634179780E0
3.024536133E0,1.618562222E0,-3.632423878E-1,5.726051331E-2,1.659809466E0
3.029510498E0,1.641729355E0,-2.418622971E-1,3.553295135E-2,1.659829882E0
3.034454346E0,1.655862808E0,-8.386707306E-2,3.936862946E-2,1.658452657E0
3.039428711E0,1.616488934E0,-1.185536385E-2,6.615543365E-2,1.617885522E0
3.044403076E0,1.517772198E0,7.835865021E-3,1.282358170E-1,1.523200010E0
3.049377442E0,1.422133923E0,8.631944656E-3,1.577329636E-1,1.430880530E0
3.054321289E0,1.336135864E0,-4.849052429E-2,1.988544464E-1,1.351722408E0
3.059295654E0,1.276284695E0,-7.268548012E-2,2.529363632E-1,1.303135682E0
3.064270020E0,1.224919319E0,-5.641102791E-2,3.026771545E-1,1.263021378E0
3.069244385E0,1.173808098E0,-6.848120689E-2,3.326492310E-1,1.221953615E0
3.074188233E0,1.110047340E0,-3.888058662E-2,3.262491226E-1,1.157650763E0
3.079162598E0,1.070057392E0,5.909228325E-2,3.794059753E-1,1.136865698E0
3.084136963E0,1.048302650E0,1.385071278E-1,3.974390030E-1,1.129637301E0
3.089111328E0,9.966335297E-1,1.445269585E-1,4.030485153E-1,1.084718645E0
3.094055176E0,9.466762543E-1,1.717832088E-1,4.279003143E-1,1.052997664E0
3.099029541E0,9.334359169E-1,2.048788071E-1,4.221124649E-1,1.044728132E0
3.104003906E0,9.065833092E-1,2.600605488E-1,4.571504593E-1,1.048098911E0
3.108978272E0,8.819875717E-1,3.234074116E-1,4.275913239E-1,1.032147650E0
3.113922119E0,8.437542915E-1,3.561718464E-1,3.967542648E-1,9.980950031E-1
3.118896485E0,8.466238976E-1,3.821961880E-1,4.068851471E-1,1.014101313E0
3.123870850E0,8.352231979E-1,4.873621464E-1,4.200744629E-1,1.054315990E0
3.128814697E0,8.367462158E-1,5.540442467E-1,4.472732544E-1,1.098709525E0
3.133789063E0,8.615837097E-1,5.361387730E-1,4.637145996E-1,1.115707176E0
3.138763428E0,8.566651344E-1,4.969315529E-1,5.250034332E-1,1.120912452E0
3.143737793E0,8.811984062E-1,4.771368504E-1,5.205268860E-1,1.129211426E0
3.148681641E0,9.357166290E-1,5.007131100E-1,4.677648544E-1,1.159777215E0
3.153656006E0,9.808034897E-1,5.197448730E-1,4.193925858E-1,1.186591909E0
3.158630371E0,1.034611702E0,4.901297092E-1,4.269514084E-1,1.221857607E0
3.163604736E0,1.085799217E0,4.795358181E-1,4.102907181E-1,1.255887341E0
3.168548584E0,1.137284756E0,4.350001812E-1,3.426389694E-1,1.264928155E0
3.173522949E0,1.191843987E0,4.121818542E-1,3.509664536E-1,1.309031482E0
3.178497315E0,1.255490303E0,3.364453316E-1,3.664770126E-1,1.350465388E0
3.183471680E0,1.298905849E0,2.431602478E-1,3.347806931E-1,1.363217306E0
3.188415527E0,1.343661308E0,2.187967300E-1,3.301944733E-1,1.400830507E0
3.193389893E0,1.367011547E0,2.181558609E-1,2.850265503E-1,1.413348041E0
3.198364258E0,1.404286861E0,2.091691494E-1,2.221860886E-1,1.437059491E0
3.203338623E0,1.448042393E0,1.734955311E-1,2.345161438E-1,1.477134148E0
3.208312988E0,1.430182934E0,9.445953369E-2,2.340908051E-1,1.452289342E0
3.213256836E0,1.455659866E0,4.388618469E-2,2.578668594E-1,1.478974970E0
3.218231201E0,1.467040539E0,5.025982857E-2,2.542934418E-1,1.489764796E0
3.223205567E0,1.521747589E0,8.483076096E-2,1.921329498E-1,1.536172859E0
3.228149414E0,1.577287197E0,1.213436127E-1,2.119073868E-1,1.596077666E0
3.233123779E0,1.638530731E0,1.316201687E-1,2.489748001E-1,1.662556849E0
3.238098145E0,1.701695442E0,1.200585365E-1,2.593336105E-1,1.725524660E0
3.243041992E0,1.757329464E0,8.065152168E-2,4.103899002E-1,1.806413957E0
3.248016358E0,1.832192898E0,3.304123878E-2,4.666528702E-1,1.890975261E0
3.252990723E0,1.907236099E0,-6.823348999E-2,5.209445953E-1,1.978279206E0
3.257965088E0,1.922426224E0,-1.512889862E-1,5.725669861E-1,2.011577465E0
3.262939453E0,1.904172421E0,-2.228047848E-1,5.700883865E-1,2.000128833E0
3.267883301E0,1.877939701E0,-2.857952118E-1,5.965566635E-1,1.991033972E0
3.272857666E0,1.833283424E0,-3.433215618E-1,6.200485229E-1,1.965517230E0
3.277832031E0,1.731571674E0,-4.247512817E-1,6.565170288E-1,1.899939137E0
3.282775879E0,1.625802994E0,-4.929955006E-1,6.538028717E-1,1.820367582E0
3.287750244E0,1.544724941E0,-5.828819275E-1,6.059494019E-1,1.758721457E0
3.292724610E0,1.464821339E0,-6.412301064E-1,5.924472809E-1,1.705248188E0
3.297698975E0,1.375946522E0,-7.188935280E-1,5.235824585E-1,1.638345301E0
3.302642822E0,1.289805412E0,-7.792994976E-1,4.946556091E-1,1.586061121E0
3.307617188E0,1.204640865E0,-8.368592262E-1,4.703674316E-1,1.540369598E0
3.312591553E0,1.145063877E0,-9.601466656E-1,4.543886185E-1,1.561896898E0
3.317565918E0,1.085850239E0,-1.081671238E0,4.041881561E-1,1.585071441E0
3.322509766E0,1.028704643E0,-1.222253084E0,4.220132828E-1,1.652341083E0
3.327484131E0,9.926700592E-1,-1.370159149E0,4.365186691E-1,1.747363296E0
3.332458496E0,9.478964806E-1,-1.502598047E0,4.250783920E-1,1.826745814E0
3.337432861E0,8.227515221E-1,-1.625731468E0,4.719648361E-1,1.882199161E0
3.342407227E0,7.549195290E-1,-1.770860195E0,4.623575211E-1,1.979803981E0
3.347351074E0,6.948728561E-1,-1.890044212E0,4.777173996E-1,2.069620575E0
3.352325440E0,5.493168831E-1,-2.053292990E0,4.431390762E-1,2.171205513E0
3.357269287E0,4.634203911E-1,-2.137151241E0,4.112634659E-1,2.225154270E0
3.362243652E0,4.091467857E-1,-2.186445475E0,3.667840958E-1,2.254434625E0
3.367218018E0,3.370695114E-1,-2.238497972E0,3.437337875E-1,2.289681625E0
3.372192383E0,2.554588318E-1,-2.306834936E0,3.042593002E-1,2.340794814E0
3.377166748E0,2.079672813E-1,-2.390923500E0,3.063764572E-1,2.419428054E0
3.382110596E0,1.411643028E-1,-2.527753353E0,3.433780670E-1,2.554872379E0
3.387084961E0,8.317136765E-2,-2.652968645E0,3.857345581E-1,2.682154220E0
3.392059326E0,4.989194870E-2,-2.791033268E0,3.825654984E-1,2.817572052E0
3.397003174E0,5.169582367E-2,-2.904830456E0,3.798294067E-1,2.930014132E0
3.401977539E0,9.356832504E-2,-2.999958754E0,4.295196533E-1,3.031995166E0
3.406951904E0,1.502962112E-1,-3.172101021E0,4.440298080E-1,3.206552090E0
3.411926270E0,2.185420990E-1,-3.284979343E0,4.887609482E-1,3.328323482E0
3.416870117E0,2.906255722E-1,-3.393468857E0,4.523687363E-1,3.435801446E0
3.421844483E0,3.192820549E-1,-3.500882149E0,4.726772308E-1,3.547046745E0
3.426818848E0,4.373488426E-1,-3.685906410E0,5.396404266E-1,3.750785500E0
3.431793213E0,5.743942261E-1,-3.888680458E0,5.446796417E-1,3.968430464E0
3.436767578E0,6.782989502E-1,-4.063116074E0,5.576286316E-1,4.156916091E0
3.441711426E0,7.986149788E-1,-4.286670685E0,5.761690140E-1,4.398329476E0
3.446685791E0,8.902096748E-1,-4.486426830E0,5.192089081E-1,4.603268063E0
3.451660156E0,1.015271664E0,-4.636871338E0,4.192771912E-1,4.765201540E0
3.456604004E0,1.099846840E0,-4.813334465E0,2.985134125E-1,4.946409001E0
3.461578369E0,1.199992657E0,-5.003539085E0,2.112216949E-1,5.149757311E0
3.466552735E0,1.273765326E0,-5.172760963E0,7.470226288E-2,5.327805788E0
3.471496582E0,1.327119827E0,-5.383128643E0,-6.752872467E-2,5.544716508E0
3.476470947E0,1.401094437E0,-5.616030216E0,-1.916236877E-1,5.791336689E0
3.481445313E0,1.491818666E0,-5.837138176E0,-2.994842529E-1,6.032196601E0
3.486419678E0,1.592344522E0,-6.088252068E0,-4.135007858E-1,6.306612182E0
3.491363526E0,1.741719484E0,-6.362210751E0,-5.353736877E-1,6.618001011E0
3.496337891E0,1.803225279E0,-6.604859352E0,-6.408510208E-1,6.876516451E0
3.501312256E0,1.895860195E0,-6.845544815E0,-7.785329819E-1,7.145759813E0
3.506286621E0,1.972856283E0,-7.082289219E0,-8.756561279E-1,7.403901414E0
3.511230469E0,2.074024916E0,-7.355922699E0,-9.682168961E-1,7.703805687E0
3.516204834E0,2.124732494E0,-7.668467045E0,-1.111896515E0,8.034686606E0
3.521179199E0,2.156676769E0,-7.985520363E0,-1.219384193E0,8.361021945E0
3.526153565E0,2.162771463E0,-8.241097450E0,-1.354979515E0,8.627238091E0
3.531097412E0,2.196926594E0,-8.442796707E0,-1.478717804E0,8.848384544E0
3.536071777E0,2.223018885E0,-8.698064804E0,-1.615327835E0,9.121810583E0
3.541046143E0,2.206866980E0,-8.901955605E0,-1.770975113E0,9.340847301E0
3.546020508E0,2.177496672E0,-9.211291313E0,-1.888149261E0,9.651657218E0
3.550964356E0,2.151090145E0,-9.544309616E0,-2.076108932E0,1.000156304E1
3.555938721E0,2.091356754E0,-9.843581200E0,-2.276528358E0,1.031757943E1
3.560913086E0,2.043465137E0,-1.014669991E1,-2.492409706E0,1.064628456E1
3.565887451E0,2.073571682E0,-1.050046062E1,-2.569634438E0,1.100737907E1
3.570831299E0,2.018758774E0,-1.080496407E1,-2.724067688E0,1.132445055E1
3.575805664E0,2.014141560E0,-1.112206841E1,-2.772885323E0,1.163812978E1
3.580780029E0,2.082689762E0,-1.147871113E1,-2.807518005E0,1.199919010E1
3.585754395E0,2.193528652E0,-1.183409119E1,-2.820802689E0,1.236180448E1
3.590698242E0,2.319952965E0,-1.218856621E1,-2.842678070E0,1.272887059E1
3.595672608E0,2.471204758E0,-1.254907608E1,-2.904690742E0,1.311576882E1
3.600646973E0,2.567162752E0,-1.290402603E1,-2.956337929E0,1.348496001E1
3.605590820E0,2.613105774E0,-1.327195263E1,-3.002781868E0,1.385603649E1
3.610565186E0,2.677108288E0,-1.363414669E1,-3.111258507E0,1.423856714E1
3.615539551E0,2.704041719E0,-1.399354267E1,-3.172021866E0,1.460112327E1
3.620513916E0,2.720130682E0,-1.439346218E1,-3.189753532E0,1.499151067E1
3.625457764E0,2.696959019E0,-1.485910606E1,-3.312063217E0,1.546080152E1
3.630432129E0,2.727683306E0,-1.534573078E1,-3.409399033E0,1.595480214E1
3.635406494E0,2.737456560E0,-1.582635403E1,-3.572645187E0,1.645390360E1
3.640380860E0,2.779372215E0,-1.627636528E1,-3.747343063E0,1.693185036E1
3.645324707E0,2.828752279E0,-1.672124481E1,-3.870287895E0,1.739485544E1
3.650299072E0,2.880177021E0,-1.717657471E1,-4.001903534E0,1.787023699E1
3.655273438E0,2.905906200E0,-1.762899017E1,-4.076436043E0,1.832601747E1
3.660247803E0,2.948645115E0,-1.813487625E1,-4.133151054E0,1.883218475E1
3.665191651E0,2.971628189E0,-1.859797478E1,-4.218141556E0,1.930046523E1
3.670166016E0,2.996539593E0,-1.906143570E1,-4.181511879E0,1.974341972E1
3.675140381E0,3.055583954E0,-1.955472565E1,-4.236152649E0,2.024027860E1
3.680114746E0,3.047167778E0,-1.999365234E1,-4.282766342E0,2.067301267E1
3.685058594E0,2.960743904E0,-2.037564278E1,-4.423592567E0,2.105946329E1
3.690032959E0,2.923691273E0,-2.081618118E1,-4.429914474E0,2.148221385E1
3.695007324E0,2.917554617E0,-2.123176575E1,-4.452079773E0,2.188883313E1
3.699951172E0,2.839559078E0,-2.162679482E1,-4.438569069E0,2.225943048E1
3.704925537E0,2.719094276E0,-2.203811646E1,-4.424942017E0,2.264182330E1
3.709899902E0,2.691535234E0,-2.244568253E1,-4.365968704E0,2.302422005E1
3.714874268E0,2.633105755E0,-2.289825058E1,-4.271880150E0,2.344167412E1
3.719818115E0,2.595887184E0,-2.333922386E1,-4.237024307E0,2.386232126E1
3.724792481E0,2.524635792E0,-2.372546577E1,-4.159966469E0,2.421934832E1
3.729766846E0,2.491065979E0,-2.411440849E1,-3.997278214E0,2.457007000E1
3.734741211E0,2.419445038E0,-2.429373169E1,-3.860718727E0,2.471728672E1
3.739685059E0,2.274251938E0,-2.426536942E1,-3.757749557E0,2.465970512E1
3.744659424E0,2.164886475E0,-2.422257423E1,-3.650155544E0,2.459153252E1
3.749633789E0,2.151417732E0,-2.417972565E1,-3.553997517E0,2.453403002E1
3.754608154E0,2.156409740E0,-2.412251472E1,-3.425431728E0,2.445975066E1
3.759552002E0,2.179869652E0,-2.405624390E1,-3.321568966E0,2.438211481E1
3.764526367E0,2.155570507E0,-2.398099709E1,-3.186229229E0,2.428758453E1
3.769500733E0,2.147805214E0,-2.389727402E1,-3.028091431E0,2.418392256E1
3.774475098E0,2.096089363E0,-2.380570793E1,-2.874131203E0,2.407002183E1
3.779418945E0,2.027287960E0,-2.370706940E1,-2.753544331E0,2.395239116E1
3.784393311E0,1.907988071E0,-2.360102654E1,-2.547307968E0,2.381465200E1
3.789367676E0,1.772517681E0,-2.348859215E1,-2.252761841E0,2.366285519E1
3.794342041E0,1.698417664E0,-2.337018394E1,-2.049319744E0,2.352126339E1
3.799285889E0,1.647988319E0,-2.324678612E1,-1.925266743E0,2.338451587E1
3.804260254E0,1.553626060E0,-2.311760902E1,-1.919639587E0,2.324914229E1
3.809234619E0,1.382694244E0,-2.298326492E1,-2.010647774E0,2.311244285E1
3.814208985E0,1.171458244E0,-2.284374428E1,-2.202456951E0,2.297955142E1
3.819152832E0,8.432559967E-1,-2.269974136E1,-2.442099094E0,2.284629481E1
3.824127197E0,5.302829742E-1,-2.254992294E1,-2.608848095E0,2.270652578E1
3.829101563E0,2.695827484E-1,-2.239478493E1,-2.665110588E0,2.255442044E1
3.834075928E0,1.761436462E-2,-2.223426247E1,-2.658520699E0,2.239264321E1
3.839019776E0,-1.529645920E-1,-2.206926918E1,-2.540389776E0,2.221552656E1
3.843994141E0,-3.432149887E-1,-2.189806557E1,-2.322577953E0,2.202356557E1
3.848968506E0,-5.105285645E-1,-2.172171211E1,-2.194687128E0,2.183827072E1
3.853912354E0,-6.812105179E-1,-2.154149437E1,-2.088482618E0,2.165321655E1
3.858886719E0,-8.294115067E-1,-2.135570908E1,-1.951125383E0,2.146068787E1
3.863861084E0,-9.826049805E-1,-2.116568756E1,-1.740555882E0,2.125985365E1
3.868835449E0,-1.137632370E0,-2.097156334E1,-1.497663498E0,2.105572778E1
3.873779297E0,-1.247583389E0,-2.077450562E1,-1.167117000E0,2.084463264E1
3.878753662E0,-1.252961159E0,-2.057282257E1,-8.741123676E-1,2.062946952E1
3.883728027E0,-1.233039856E0,-2.036781311E1,-6.527161598E-1,2.041553910E1
3.888702393E0,-1.083180428E0,-2.016000557E1,-4.953424335E-1,2.019515953E1
3.893646240E0,-1.006344795E0,-1.995109940E1,-3.977855742E-1,1.998042368E1
3.898620606E0,-9.876708984E-1,-1.973929405E1,-5.486512780E-1,1.977160190E1
3.903594971E0,-9.806394577E-1,-1.952612114E1,-7.361224890E-1,1.956458374E1
3.908569336E0,-9.094076157E-1,-1.931222343E1,-7.019053102E-1,1.934636057E1
3.913513184E0,-7.366790771E-1,-1.909945297E1,-7.875918746E-1,1.912987456E1
3.918487549E0,-5.447626114E-1,-1.888631439E1,-9.851820469E-1,1.891983671E1
3.923461914E0,-3.763961792E-1,-1.867475700E1,-1.270799875E0,1.872172950E1
3.928436279E0,-2.722921371E-1,-1.846573257E1,-1.624609470E0,1.853906088E1
3.933380127E0,-1.915044785E-1,-1.826126099E1,-1.966116667E0,1.836779632E1
3.938354492E0,-4.368686676E-2,-1.806001663E1,-2.251931429E0,1.819992595E1
3.943328858E0,2.047424316E-1,-1.786384964E1,-2.552847624E0,1.804649757E1
3.948272705E0,4.093923569E-1,-1.767495918E1,-3.020645618E0,1.793588816E1
3.953247070E0,5.336055756E-1,-1.749237823E1,-3.394149303E0,1.782661720E1
3.958221436E0,5.905971527E-1,-1.731776810E1,-3.784374237E0,1.773627315E1
3.963195801E0,5.169849396E-1,-1.715149498E1,-4.125428677E0,1.764823547E1
3.968170166E0,3.877792358E-1,-1.699376869E1,-4.414154053E0,1.756198460E1
3.973114014E0,3.020458221E-1,-1.684542847E1,-4.624184132E0,1.747119832E1
3.978088379E0,2.855978012E-1,-1.670523453E1,-4.887864113E0,1.740797640E1
3.983062744E0,2.728548050E-1,-1.657400894E1,-5.062077522E0,1.733196039E1
3.988006592E0,1.331262589E-1,-1.645257759E1,-5.295079231E0,1.728418051E1
3.992980957E0,-1.039495468E-1,-1.633951759E1,-5.447674274E0,1.722404702E1
3.997955322E0,-3.687591553E-1,-1.623492050E1,-5.502748966E0,1.714610373E1
4.002929688E0,-6.332616806E-1,-1.613832283E1,-5.432879925E0,1.704003135E1
4.007904053E0,-7.898073196E-1,-1.604895020E1,-5.359361649E0,1.693857595E1
4.012847901E0,-9.076089859E-1,-1.596680069E1,-5.361126900E0,1.686725111E1
4.017822266E0,-1.008525848E0,-1.589082050E1,-5.428039551E0,1.682257156E1
4.022796631E0,-1.080808640E0,-1.582134533E1,-5.494826794E0,1.678321295E1
4.027740479E0,-1.212868690E0,-1.575838470E1,-5.559617043E0,1.675431528E1
4.032714844E0,-1.316355705E0,-1.570124626E1,-5.548672676E0,1.670478060E1
4.037689209E0,-1.394174576E0,-1.564975739E1,-5.423652172E0,1.662151112E1
4.042663574E0,-1.452736855E0,-1.560366058E1,-5.388414383E0,1.657165283E1
4.047607422E0,-1.550937653E0,-1.556295013E1,-5.555254936E0,1.659733960E1
4.052581787E0,-1.720458031E0,-1.552699852E1,-5.707642078E0,1.663204248E1
4.057556152E0,-1.892731667E0,-1.549578476E1,-5.799893379E0,1.665354442E1
4.062530518E0,-2.090656281E0,-1.546901894E1,-5.971062183E0,1.671271893E1
4.067474365E0,-2.254667282E0,-1.544624329E1,-6.089166641E0,1.675553361E1
4.072448731E0,-2.419412613E0,-1.542709351E1,-6.118675232E0,1.677161167E1
4.077423096E0,-2.648134232E0,-1.541121101E1,-6.158900738E0,1.680625176E1
4.082366944E0,-2.812464714E0,-1.539790344E1,-6.140577316E0,1.681404407E1
4.087341309E0,-3.006403923E0,-1.538704491E1,-6.146339893E0,1.683974791E1
4.092315674E0,-3.196104050E0,-1.518208313E1,-6.193000317E0,1.670520824E1
4.097290039E0,-3.323785782E0,-1.482333660E1,-6.196980476E0,1.640674943E1
4.102233887E0,-3.424415588E0,-1.441692829E1,-6.167200089E0,1.605019627E1
4.107208252E0,-3.588940620E0,-1.391743565E1,-6.235664845E0,1.566713202E1
4.112182617E0,-3.716351509E0,-1.337215996E1,-6.283422947E0,1.523506923E1
4.117156983E0,-3.817682266E0,-1.271731949E1,-6.333059311E0,1.471096710E1
4.122100830E0,-3.968521118E0,-1.208828449E1,-6.439820766E0,1.425998153E1
4.127075195E0,-3.988642693E0,-1.167841721E1,-6.500529766E0,1.394817501E1
4.132049561E0,-3.930044174E0,-1.135271835E1,-6.509304047E0,1.366383915E1
4.137023926E0,-3.932092667E0,-1.091792297E1,-6.550071239E0,1.332538285E1
4.141967774E0,-3.809999466E0,-1.045293808E1,-6.601803780E0,1.293691708E1
4.146942139E0,-3.757299423E0,-1.003711128E1,-6.616665363E0,1.259528334E1
4.151916504E0,-3.665147781E0,-9.694814682E0,-6.577461243E0,1.227541186E1
4.156890869E0,-3.565454483E0,-9.380002975E0,-6.568277836E0,1.199329793E1
4.161834717E0,-3.499096870E0,-9.134090424E0,-6.536434650E0,1.176436419E1
4.166809082E0,-3.428600311E0,-8.920160294E0,-6.521911144E0,1.156978326E1
4.171783447E0,-3.346841812E0,-8.687904358E0,-6.456164360E0,1.132974362E1
4.176757813E0,-3.270764351E0,-8.377687454E0,-6.441335678E0,1.106229415E1
4.181701660E0,-3.162872314E0,-8.028008461E0,-6.399573326E0,1.074277524E1
4.186676026E0,-3.083645821E0,-7.813669682E0,-6.359772682E0,1.053608153E1
4.191650391E0,-2.983359337E0,-7.574251652E0,-6.374902248E0,1.033968567E1
4.196594238E0,-2.908717155E0,-7.251297951E0,-6.421954632E0,1.011352850E1
4.201568604E0,-2.862703323E0,-6.956813335E0,-6.508455753E0,9.947477992E0
4.206542969E0,-2.833297729E0,-6.625510216E0,-6.628960133E0,9.791224340E0
4.211517334E0,-2.802445412E0,-6.258955479E0,-6.728624344E0,9.607424709E0
4.216461182E0,-2.737426758E0,-5.946909428E0,-6.745168209E0,9.399815486E0
4.221435547E0,-2.673652649E0,-5.732597351E0,-6.771818161E0,9.266531826E0
4.226409912E0,-2.589586258E0,-5.548881054E0,-6.800946236E0,9.151442927E0
4.231384277E0,-2.499647141E0,-5.378481388E0,-6.759891987E0,8.992910404E0
4.236328125E0,-2.488270760E0,-5.182077408E0,-6.768625736E0,8.880299094E0
4.241302490E0,-2.458016396E0,-4.910744190E0,-6.800047874E0,8.740589465E0
4.246276856E0,-2.389931679E0,-4.626256943E0,-6.772320747E0,8.542736976E0
4.251251221E0,-2.302103996E0,-4.417797089E0,-6.793487549E0,8.424255872E0
4.256195069E0,-2.239006996E0,-4.271772385E0,-6.846587658E0,8.374780844E0
4.261169434E0,-2.233498573E0,-4.069770813E0,-6.919508934E0,8.332535883E0
4.266143799E0,-2.259140968E0,-3.779619217E0,-7.006066799E0,8.274914582E0
4.271118164E0,-2.295516014E0,-3.448516846E0,-7.130616665E0,8.246657276E0
4.276062012E0,-2.287584305E0,-3.134921551E0,-7.228275299E0,8.204190324E0
4.281036377E0,-2.309514999E0,-2.932743073E0,-7.247773170E0,8.152610465E0
4.286010742E0,-2.315150261E0,-2.807041168E0,-7.327669144E0,8.181328494E0
4.290985108E0,-2.338440895E0,-2.715789318E0,-7.370853901E0,8.195932203E0
4.295928955E0,-2.359019279E0,-2.632028580E0,-7.387226105E0,8.189240253E0
4.300903320E0,-2.362389565E0,-2.503658772E0,-7.452653408E0,8.209216438E0
4.305877686E0,-2.400328636E0,-2.398603439E0,-7.446778774E0,8.183482763E0
4.310852051E0,-2.439140320E0,-2.317273617E0,-7.468858242E0,8.191642445E0
4.315795899E0,-2.431402206E0,-2.276124954E0,-7.520705223E0,8.225172858E0
4.320770264E0,-2.455895424E0,-2.202517986E0,-7.569499969E0,8.257108307E0
4.325744629E0,-2.464035988E0,-2.074022770E0,-7.604413986E0,8.258338566E0
4.330688477E0,-2.434944153E0,-1.932991982E0,-7.703965187E0,8.307616423E0
4.335662842E0,-2.390857697E0,-1.831322670E0,-7.741073132E0,8.306272117E0
4.340637207E0,-2.278034210E0,-1.750974655E0,-7.745531559E0,8.261271769E0
4.345611572E0,-2.140817642E0,-1.715086937E0,-7.746183395E0,8.217541030E0
4.350555420E0,-1.961274147E0,-1.654305935E0,-7.736376762E0,8.150757622E0
4.355529785E0,-1.774853706E0,-1.585573196E0,-7.731900692E0,8.089897178E0
4.360504151E0,-1.588841438E0,-1.580806255E0,-7.712834358E0,8.031885169E0
4.365478516E0,-1.419651031E0,-1.546503544E0,-7.718717575E0,7.999105154E0
4.370422363E0,-1.338316917E0,-1.405115604E0,-7.706890106E0,7.947427077E0
4.375396729E0,-1.258879662E0,-1.298101902E0,-7.767871380E0,7.975567210E0
4.380371094E0,-1.140039444E0,-1.213402748E0,-7.775844574E0,7.952093750E0
4.385345459E0,-1.054883957E0,-1.164654732E0,-7.818071365E0,7.974424160E0
4.390289307E0,-9.356536865E-1,-1.131326675E0,-7.857387066E0,7.993364709E0
4.395263672E0,-8.180990219E-1,-1.020534992E0,-7.909394741E0,8.016813759E0
4.400238037E0,-6.802396774E-1,-9.234576225E-1,-7.986662388E0,8.068598149E0
4.405212402E0,-5.766315460E-1,-8.287854195E-1,-7.998923302E0,8.062391903E0
4.410156250E0,-5.168743134E-1,-6.590270996E-1,-8.053020477E0,8.096456915E0
4.415130615E0,-4.331712723E-1,-5.389432907E-1,-8.088254929E0,8.117756156E0
4.420104981E0,-2.909164429E-1,-4.877219200E-1,-8.056987762E0,8.076976962E0
4.425048828E0,-1.573429108E-1,-5.109882355E-1,-8.107873917E0,8.125483691E0
4.430023194E0,-1.083698273E-1,-5.106005669E-1,-8.125480652E0,8.142228981E0
4.434997559E0,-5.108547211E-2,-5.372629166E-1,-8.101004601E0,8.118961553E0
4.439971924E0,-2.097511292E-2,-5.212144852E-1,-8.089889526E0,8.106689648E0
4.444915772E0,1.494598389E-2,-4.641599655E-1,-8.072137833E0,8.085485579E0
4.449890137E0,6.590366364E-2,-3.741669655E-1,-8.051242828E0,8.060201939E0
4.454864502E0,1.354026794E-1,-2.423434258E-1,-7.989314079E0,7.994135580E0
4.459838867E0,2.156248093E-1,-2.254033089E-1,-7.899384022E0,7.905540376E0
4.464813233E0,3.311119080E-1,-2.812762260E-1,-7.833764076E0,7.845802127E0
4.469757080E0,4.865674973E-1,-3.489227295E-1,-7.631014824E0,7.654468123E0
4.474731445E0,6.694602966E-1,-4.282727242E-1,-7.412171841E0,7.454655325E0
4.479705811E0,8.987798691E-1,-4.639029503E-1,-7.225996971E0,7.296440463E0
4.484680176E0,1.083995819E0,-4.525475502E-1,-7.020248413E0,7.117846163E0
4.489624024E0,1.241080284E0,-4.388012886E-1,-6.878330708E0,7.003160727E0
4.494598389E0,1.387530327E0,-4.799203873E-1,-6.746664047E0,6.904566587E0
4.499572754E0,1.537448406E0,-4.648575783E-1,-6.609182835E0,6.801554081E0
4.504547119E0,1.689518452E0,-3.752560616E-1,-6.457920551E0,6.685807921E0
4.509490967E0,1.851263523E0,-2.468037605E-1,-6.382758141E0,6.650390230E0
4.514465332E0,1.971246243E0,-1.726994514E-1,-6.325666428E0,6.627947842E0
4.519439697E0,2.042675972E0,-1.501679420E-1,-6.232269287E0,6.560202436E0
4.524383545E0,2.147290707E0,-1.368732452E-1,-6.184430122E0,6.548035400E0
4.529357910E0,2.258219719E0,-2.324628830E-2,-6.144110203E0,6.546005413E0
4.534332276E0,2.330889225E0,1.447291374E-1,-6.009469509E0,6.447302915E0
4.539306641E0,2.412436962E0,2.442507744E-1,-5.847990513E0,6.330758531E0
4.544250488E0,2.485981941E0,2.900762558E-1,-5.688285828E0,6.214567250E0
4.549224854E0,2.471488476E0,2.828822136E-1,-5.526746750E0,6.060792627E0
4.554199219E0,2.427010059E0,2.889838219E-1,-5.376123428E0,5.905640744E0
4.559143067E0,2.405786991E0,3.029503822E-1,-5.220051289E0,5.755738479E0
4.564117432E0,2.345198631E0,3.124442101E-1,-5.019232750E0,5.548898576E0
4.569091797E0,2.286365509E0,3.010439873E-1,-4.775712490E0,5.303350310E0
4.574066162E0,2.182190418E0,2.306890488E-1,-4.567429543E0,5.067206833E0
4.579010010E0,2.077429771E0,1.384115219E-1,-4.351012707E0,4.823503268E0
4.583984375E0,1.969164371E0,6.613206863E-2,-4.080420971E0,4.531204815E0
4.588958740E0,1.878304482E0,9.708881378E-3,-3.841586590E0,4.276202698E0
4.593933106E0,1.698535442E0,-6.363344193E-2,-3.556614876E0,3.941900714E0
4.598876953E0,1.540026665E0,-1.406354904E-1,-3.264717340E0,3.612456198E0
4.603851319E0,1.359263420E0,-2.199544907E-1,-3.016586304E0,3.315987025E0
4.608825684E0,1.194063663E0,-2.876353264E-1,-2.803058863E0,3.060336763E0
4.613800049E0,1.076276779E0,-3.661928177E-1,-2.553672314E0,2.795301624E0
4.618743897E0,9.472985268E-1,-5.070118904E-1,-2.282771111E0,2.522990190E0
4.623718262E0,8.405900002E-1,-6.597852707E-1,-2.053206682E0,2.314641621E0
4.628692627E0,7.740459442E-1,-8.616228104E-1,-1.802714348E0,2.142736571E0
4.633666992E0,7.070031166E-1,-1.029890537E0,-1.553492546E0,1.993456048E0
4.638610840E0,6.544685364E-1,-1.230329037E0,-1.392986655E0,1.970393470E0
4.643585205E0,5.941185951E-1,-1.428969860E0,-1.281643391E0,2.009363468E0
4.648559570E0,4.949007034E-1,-1.632943153E0,-1.232817650E0,2.105058053E0
4.653533936E0,4.117093086E-1,-1.842380524E0,-1.162032843E0,2.216797437E0
4.658477783E0,3.296899796E-1,-2.007521152E0,-1.069174528E0,2.298253866E0
4.663452149E0,2.272186279E-1,-2.170431614E0,-9.869646430E-1,2.395099351E0
4.668426514E0,1.636676788E-1,-2.280117035E0,-9.356593490E-1,2.470056521E0
4.673370361E0,5.000734329E-2,-2.377300262E0,-9.451994300E-1,2.558800351E0
4.678344727E0,-3.780174255E-2,-2.485356331E0,-9.635910988E-1,2.665883131E0
4.683319092E0,-1.301708221E-1,-2.562905312E0,-1.076448202E0,2.782834672E0
4.688293457E0,-1.899294853E-1,-2.654176235E0,-1.151962161E0,2.899610580E0
4.693237305E0,-2.367777824E-1,-2.693902493E0,-1.210608006E0,2.962894885E0
4.698211670E0,-2.661781311E-1,-2.723815918E0,-1.304358959E0,3.031728261E0
4.703186035E0,-3.235197067E-1,-2.745635509E0,-1.457529068E0,3.125311238E0
4.708160401E0,-3.754158020E-1,-2.713533878E0,-1.643718123E0,3.194685024E0
4.713104248E0,-4.575209618E-1,-2.709821701E0,-1.859528065E0,3.318177769E0
4.718078613E0,-5.915608406E-1,-2.660626411E0,-2.124511242E0,3.455781409E0
4.723052979E0,-7.229871750E-1,-2.677711487E0,-2.408064842E0,3.673094819E0
4.728027344E0,-9.072532654E-1,-2.674055099E0,-2.781249523E0,3.963461628E0
4.732971192E0,-1.158491135E0,-2.678071022E0,-3.159245014E0,4.300580794E0
4.737945557E0,-1.373321533E0,-2.689794540E0,-3.574528694E0,4.679557895E0
4.742919922E0,-1.576104164E0,-2.778785229E0,-3.991216660E0,5.112295190E0
4.747894287E0,-1.797845840E0,-2.893296242E0,-4.334975243E0,5.513204437E0
4.752838135E0,-1.991559029E0,-2.931200027E0,-4.663633823E0,5.857279352E0
4.757812500E0,-2.142383575E0,-2.944702625E0,-4.939476013E0,6.136734003E0
4.762786865E0,-2.270917892E0,-2.965071678E0,-5.129935741E0,6.345467583E0
4.767761231E0,-2.321918488E0,-3.008816719E0,-5.203523636E0,6.443674553E0
4.772705078E0,-2.328096390E0,-3.182063580E0,-5.210431099E0,6.534076343E0
4.777679444E0,-2.321091652E0,-3.521785736E0,-5.224148750E0,6.714325833E0
4.782653809E0,-2.272106171E0,-3.762261391E0,-5.272263050E0,6.863951842E0
4.787597656E0,-2.218096733E0,-3.941614628E0,-5.404235363E0,7.047129831E0
4.792572022E0,-2.165460587E0,-4.159012794E0,-5.550271511E0,7.265818662E0
4.797546387E0,-2.136416435E0,-4.350983143E0,-5.732496262E0,7.507119480E0
4.802520752E0,-2.063643456E0,-4.564921379E0,-5.907781124E0,7.745902744E0
4.807464600E0,-1.988562584E0,-4.794799328E0,-6.046672821E0,7.969111240E0
4.812438965E0,-1.871929169E0,-5.031293392E0,-6.173884392E0,8.181373998E0
4.817413330E0,-1.746944427E0,-5.281793594E0,-6.244222164E0,8.362982054E0
4.822387695E0,-1.642982483E0,-5.523724556E0,-6.348618031E0,8.574139916E0
4.827331543E0,-1.490710258E0,-5.691975117E0,-6.447993279E0,8.729113078E0
4.832305908E0,-1.387812614E0,-5.874890804E0,-6.574108124E0,8.925203832E0
4.837280274E0,-1.217144966E0,-6.012819767E0,-6.690825462E0,9.077587168E0
4.842254639E0,-1.038222313E0,-6.134350777E0,-6.740722179E0,9.173085660E0
4.847198486E0,-8.924388885E-1,-6.331737518E0,-6.813736916E0,9.344215212E0
4.852172852E0,-7.710914612E-1,-6.503722668E0,-6.861411572E0,9.485354992E0
4.857147217E0,-6.516199112E-1,-6.651772976E0,-6.868011475E0,9.583333128E0
4.862121582E0,-5.730686188E-1,-6.843103409E0,-6.856824875E0,9.704252638E0
4.867065430E0,-4.487590790E-1,-7.092731476E0,-6.832193375E0,9.858351323E0
4.872039795E0,-3.525772095E-1,-7.396787167E0,-6.822144508E0,1.006868545E1
4.877014160E0,-3.126258850E-1,-7.756439686E0,-6.876441956E0,1.037041684E1
4.881988526E0,-3.092164993E-1,-8.144842148E0,-6.861498833E0,1.065430592E1
4.886932373E0,-3.173179626E-1,-8.479667664E0,-6.872996807E0,1.091986902E1
4.891906738E0,-3.292074203E-1,-8.823347092E0,-6.872763157E0,1.118904396E1
4.896881104E0,-3.453722000E-1,-9.208075523E0,-6.798751831E0,1.145124287E1
4.901855469E0,-4.008722305E-1,-9.588854790E0,-6.717252254E0,1.171444888E1
4.906799317E0,-3.963871002E-1,-9.939504623E0,-6.616787910E0,1.194708153E1
4.911773682E0,-3.531284332E-1,-1.027845001E1,-6.543458939E0,1.218967142E1
4.916748047E0,-2.740345001E-1,-1.058240795E1,-6.516401291E0,1.243084626E1
4.921691895E0,-1.542348862E-1,-1.108030319E1,-6.434347153E0,1.281396623E1
4.926666260E0,-6.799030304E-2,-1.154166794E1,-6.461374760E0,1.322739904E1
4.931640625E0,1.052665710E-2,-1.194743919E1,-6.507098675E0,1.360454877E1
4.936614990E0,7.637310028E-2,-1.232963753E1,-6.602000713E0,1.398614342E1
4.941558838E0,6.338024139E-2,-1.279809856E1,-6.692842960E0,1.444262756E1
4.946533203E0,-3.833103180E-2,-1.336244106E1,-6.801081657E0,1.499369908E1
4.951507569E0,-7.934856415E-2,-1.388265133E1,-6.915206432E0,1.550981573E1
4.956481934E0,-9.000301361E-2,-1.436751652E1,-7.085343838E0,1.601985420E1
4.961425781E0,7.351875305E-3,-1.496339607E1,-7.265412331E0,1.663398606E1
4.966400147E0,2.497758865E-1,-1.536974335E1,-7.565436363E0,1.713263628E1
4.971374512E0,3.988294601E-1,-1.543591690E1,-7.892546654E0,1.734124817E1
4.976348877E0,7.464303970E-1,-1.550620270E1,-8.511869431E0,1.770455878E1
4.981323242E0,6.905765533E-1,-1.558038712E1,-8.497914314E0,1.776062798E1
4.986267090E0,8.796911240E-1,-1.565785599E1,-8.930002213E0,1.804680720E1
4.991241455E0,1.090588570E0,-1.573975372E1,-9.347750664E0,1.833874786E1
4.996215820E0,1.294307709E0,-1.582574654E1,-9.649783134E0,1.858084499E1
5.001159668E0,1.518677711E0,-1.591565895E1,-9.871716499E0,1.879003375E1
5.006134033E0,1.710396767E0,-1.601120758E1,-1.000984573E1,1.895999042E1
5.011108399E0,1.928534508E0,-1.611216354E1,-1.004935837E1,1.908692388E1
5.016082764E0,2.176074982E0,-1.621908760E1,-9.944194794E0,1.914891942E1
5.021026611E0,2.362546921E0,-1.633175468E1,-9.859577179E0,1.922287963E1
5.026000977E0,2.514248848E0,-1.645241737E1,-9.751621246E0,1.928983156E1
5.030975342E0,2.696190834E0,-1.658099174E1,-9.525689125E0,1.931158941E1
5.035949707E0,2.902342796E0,-1.671833420E1,-9.272917747E0,1.933683779E1
5.040893555E0,3.191501617E0,-1.686421967E1,-9.012567520E0,1.938592172E1
5.045867920E0,3.470977783E0,-1.702170944E1,-8.859713554E0,1.950078981E1
5.050842285E0,3.666858673E0,-1.719060898E1,-8.726145744E0,1.962418174E1
5.055786133E0,3.653650284E0,-1.736999512E1,-8.435651779E0,1.965263625E1
5.060760498E0,3.558199883E0,-1.756146812E1,-8.109321594E0,1.966791920E1
5.065734863E0,3.834314346E0,-1.776172829E1,-8.101355553E0,1.989504763E1
5.070709229E0,4.048460007E0,-1.796951294E1,-8.368065834E0,2.023160768E1
5.075653076E0,4.303341866E0,-1.818222046E1,-8.818875313E0,2.066118229E1
5.080627442E0,4.593072891E0,-1.840113068E1,-9.342878342E0,2.114207427E1
5.085601807E0,4.972840309E0,-1.862293816E1,-9.850305557E0,2.164651209E1
5.090576172E0,5.645732880E0,-1.884576797E1,-1.028993893E1,2.220180428E1
5.095520020E0,6.646173477E0,-1.906730461E1,-1.080585098E1,2.290196809E1
5.100494385E0,7.823773384E0,-1.929114151E1,-1.145909786E1,2.376279644E1
5.105468750E0,8.657319069E0,-1.951679039E1,-1.194924355E1,2.446709427E1
5.110443115E0,8.618820190E0,-1.974562836E1,-1.216682339E1,2.474278667E1
5.115386963E0,8.571593285E0,-1.997801971E1,-1.231345749E1,2.498428943E1
5.120361328E0,8.561602592E0,-2.021915817E1,-1.240640259E1,2.521971890E1
5.125335694E0,8.544214249E0,-2.046959877E1,-1.249566364E1,2.545878396E1
5.130279541E0,8.533168793E0,-2.072997093E1,-1.263290310E1,2.573202101E1
5.135253906E0,8.529008865E0,-2.100569534E1,-1.260322666E1,2.593886180E1
5.140228272E0,8.531706810E0,-2.129659462E1,-1.228572655E1,2.602448924E1
5.145202637E0,8.541474342E0,-2.160440063E1,-1.189574432E1,2.610010812E1
5.150146485E0,8.558981895E0,-2.192825127E1,-1.142829227E1,2.616696847E1
5.155120850E0,8.586117744E0,-2.227276039E1,-1.073622894E1,2.617372509E1
5.160095215E0,8.624979973E0,-2.263539124E1,-9.979253769E0,2.619802897E1
5.165069580E0,8.678602219E0,-2.301496124E1,-8.935846329E0,2.616975214E1
5.170013428E0,8.750273705E0,-2.340756607E1,-7.866064072E0,2.619840459E1
5.174987793E0,8.845667839E0,-2.381633759E1,-7.029309273E0,2.636048111E1
5.179962158E0,8.969715118E0,-2.423605728E1,-6.264010429E0,2.659097758E1
5.184936524E0,9.127905846E0,-2.466286850E1,-5.540828228E0,2.687520279E1
5.189880371E0,9.324160576E0,-2.508922577E1,-4.814336777E0,2.719534995E1
5.194854736E0,9.566824913E0,-2.551642990E1,-4.110917091E0,2.755924479E1
5.199829102E0,9.861034393E0,-2.593637466E1,-4.112821102E0,2.805086144E1
5.204803467E0,1.021381187E1,-2.634347916E1,-4.241259098E0,2.857077398E1
5.209747315E0,1.062938786E1,-2.672867203E1,-4.387995720E0,2.909742774E1
5.214721680E0,1.111924553E1,-2.708889008E1,-4.695930481E0,2.965632057E1
5.219696045E0,1.168474674E1,-2.741140175E1,-4.785606861E0,3.017979929E1
5.224670410E0,1.232715702E1,-2.768582153E1,-4.648307800E0,3.066056555E1
5.229614258E0,1.303942871E1,-2.790089417E1,-4.406461716E0,3.111114754E1
5.234588623E0,1.382320309E1,-2.804995346E1,-3.808753967E0,3.150218150E1
5.239562988E0,1.466139221E1,-2.812332726E1,-2.723690987E0,3.183231770E1
5.244506836E0,1.553236103E1,-2.811736107E1,-1.573124886E0,3.216076732E1
5.249481201E0,1.642856979E1,-2.803285789E1,-8.448686600E-1,3.250312032E1
5.254455567E0,1.721037292E1,-2.787187958E1,-1.978964806E-1,3.275786578E1
5.259429932E0,1.641117859E1,-2.764029121E1,7.245702744E-1,3.215334327E1
5.264404297E0,1.509167480E1,-2.734723282E1,1.791254997E0,3.128639298E1
5.269348145E0,1.450658798E1,-2.700596428E1,2.561858177E0,3.076241731E1
5.274322510E0,1.396898365E1,-2.662368965E1,3.248943329E0,3.024084965E1
5.279296875E0,1.317008972E1,-2.621251488E1,4.141964912E0,2.962605395E1
5.284240723E0,1.199911690E1,-2.578467751E1,5.136189461E0,2.889997998E1
5.289215088E0,1.071879673E1,-2.534419632E1,6.010671616E0,2.816645281E1
5.294189453E0,9.354692459E0,-2.490066528E1,6.837736130E0,2.746466890E1
5.299163819E0,7.480455399E0,-2.446038055E1,7.265414238E0,2.659048089E1
5.304107666E0,4.995035172E0,-2.403083420E1,7.252346992E0,2.559351296E1
5.309082031E0,2.234172821E0,-2.361113548E1,6.779142380E0,2.466645533E1
5.314056397E0,-3.813750744E-1,-2.320677185E1,6.089440346E0,2.399543687E1
5.319030762E0,-2.703024387E0,-2.282001877E1,5.309777260E0,2.358502347E1
5.323974610E0,-4.796629429E0,-2.245445061E1,4.238082886E0,2.334890474E1
5.328948975E0,-6.689502239E0,-2.210621834E1,3.138546944E0,2.330847070E1
5.333923340E0,-8.139608383E0,-2.177773666E1,2.514369011E0,2.338471916E1
5.338897705E0,-9.237413406E0,-2.147023201E1,1.565217018E0,2.342542579E1
5.343841553E0,-9.610687256E0,-2.118425941E1,5.553417206E-1,2.326900430E1
5.348815918E0,-9.517665863E0,-2.091498566E1,4.995346069E-2,2.297879640E1
5.353790283E0,-8.984182358E0,-2.066236496E1,-1.694650650E-1,2.253170160E1
5.358764649E0,-8.058179855E0,-2.042490387E1,-1.880044937E-1,2.195783018E1
5.363708496E0,-7.012510300E0,-2.020202827E1,3.304290771E-2,2.138453504E1
5.368682861E0,-5.831168652E0,-1.998946190E1,4.259881973E-1,2.082696763E1
5.373657227E0,-4.738362789E0,-1.978727722E1,9.018344879E-1,2.036668179E1
5.378631592E0,-3.821125984E0,-1.959458733E1,1.468695641E0,2.001764030E1
5.383575440E0,-3.076674938E0,-1.941176414E1,2.056088448E0,1.976132626E1
5.388549805E0,-2.616333961E0,-1.923649025E1,2.534278870E0,1.957831274E1
5.393524170E0,-2.412065983E0,-1.906979752E1,2.932272911E0,1.944411129E1
5.398468018E0,-2.371806145E0,-1.891277885E1,3.260697365E0,1.933780793E1
5.403442383E0,-2.500980377E0,-1.876429939E1,3.508777618E0,1.925267137E1
5.408416748E0,-2.698830605E0,-1.840632439E1,3.631572723E0,1.895428143E1
5.413391113E0,-3.013280869E0,-1.724585915E1,3.805152893E0,1.791587865E1
5.418334961E0,-3.379223824E0,-1.598641586E1,3.807044029E0,1.677731296E1
5.423309326E0,-3.593307972E0,-1.509720039E1,3.676325798E0,1.594843858E1
5.428283692E0,-3.986886501E0,-1.384063625E1,3.590071678E0,1.484409278E1
5.433258057E0,-4.297296047E0,-1.277256203E1,3.485827446E0,1.391962956E1
5.438201904E0,-4.645634174E0,-1.192990208E1,3.285239220E0,1.321730976E1
5.443176270E0,-4.944381237E0,-1.099811935E1,2.930362701E0,1.240937390E1
5.448150635E0,-5.096907139E0,-9.999614716E0,2.509157181E0,1.150072287E1
5.453125000E0,-5.110551357E0,-9.146748543E0,2.109832764E0,1.068794360E1
5.458068848E0,-5.083060741E0,-8.333681107E0,1.718858719E0,9.911721474E0
5.463043213E0,-4.945418835E0,-7.558097363E0,1.440994263E0,9.146500296E0
5.468017578E0,-4.672182083E0,-6.819329262E0,1.190767288E0,8.351674307E0
5.472991944E0,-4.359118938E0,-6.164940834E0,9.675283432E-1,7.612130090E0
5.477935791E0,-3.902878284E0,-5.605851173E0,7.807722092E-1,6.875145927E0
5.482910156E0,-3.411080360E0,-5.172157288E0,6.962957382E-1,6.234701917E0
5.487884522E0,-2.965028763E0,-4.654778481E0,5.766172409E-1,5.548949965E0
5.492828369E0,-2.573586941E0,-4.299393177E0,5.406875610E-1,5.039888339E0
5.497802735E0,-2.181100368E0,-4.046941757E0,6.034107208E-1,4.636705824E0
5.502777100E0,-1.803990364E0,-3.740834475E0,6.126194000E-1,4.198038391E0
5.507751465E0,-1.541778088E0,-3.440894604E0,6.196746826E-1,3.821103513E0
5.512725830E0,-1.349698544E0,-3.188315630E0,6.151876450E-1,3.516461084E0
5.517669678E0,-1.174138546E0,-2.962967634E0,6.165618896E-1,3.246217351E0
5.522644043E0,-1.044682980E0,-2.710140944E0,5.787105560E-1,2.961609760E0
5.527618408E0,-9.648976326E-1,-2.450268269E0,4.684314728E-1,2.674746731E0
5.532562256E0,-9.406805038E-1,-2.203918457E0,3.679361343E-1,2.424358343E0
5.537536621E0,-8.503365517E-1,-1.907971144E0,2.721853256E-1,2.106540051E0
5.542510986E0,-8.075861931E-1,-1.702790737E0,1.213560104E-1,1.888496501E0
5.547485352E0,-7.716784477E-1,-1.558552742E0,-6.867694855E-2,1.740485794E0
5.552429199E0,-6.853251457E-1,-1.397662163E0,-2.523641586E-1,1.576964725E0
5.557403565E0,-6.726231575E-1,-1.185686111E0,-4.523344040E-1,1.436272913E0
5.562377930E0,-6.419873238E-1,-9.637668133E-1,-6.475582123E-1,1.326772713E0
5.567352295E0,-6.232762337E-1,-8.641934395E-1,-8.860244751E-1,1.385764386E0
5.572296143E0,-5.292305946E-1,-7.533349991E-1,-1.080651283E0,1.419649900E0
5.577270508E0,-3.414912224E-1,-6.195406914E-1,-1.252965927E0,1.438878222E0
5.582244873E0,-7.960844040E-2,-5.359177589E-1,-1.380969048E0,1.483448974E0
5.587219238E0,1.547207832E-1,-5.097620487E-1,-1.453768730E0,1.548302098E0
5.592163086E0,3.121123314E-1,-4.538643360E-1,-1.501018524E0,1.598894478E0
5.597137451E0,5.267443657E-1,-3.727092743E-1,-1.547347069E0,1.676500755E0
5.602111817E0,6.894569397E-1,-2.459795475E-1,-1.602005005E0,1.761328148E0
5.607086182E0,8.476500511E-1,-8.144736290E-2,-1.542048454E0,1.761549806E0
5.612060547E0,1.022772789E0,5.631899834E-2,-1.397505760E0,1.732702617E0
5.617004395E0,1.184123039E0,1.177997589E-1,-1.387942314E0,1.828225375E0
5.621978760E0,1.314792156E0,2.096800804E-1,-1.327321053E0,1.880006736E0
5.626953125E0,1.421370029E0,3.978247643E-1,-1.179244995E0,1.889226313E0
5.631927490E0,1.471838951E0,4.906821251E-1,-9.374408722E-1,1.812698054E0
5.636871338E0,1.500858784E0,5.107197762E-1,-7.091760635E-1,1.736762064E0
5.641845703E0,1.415491104E0,4.652364254E-1,-5.712919235E-1,1.595755138E0
5.646820069E0,1.282493114E0,4.731731415E-1,-4.418563843E-1,1.436634426E0
5.651763916E0,1.141645908E0,4.928915501E-1,-3.444795609E-1,1.290334696E0
5.656738281E0,9.764680862E-1,4.212970734E-1,-2.068128586E-1,1.083398683E0
5.661712647E0,9.418349266E-1,4.592955112E-1,8.593559265E-3,1.047892764E0
5.666656494E0,8.913893700E-1,6.125116348E-1,-1.128387451E-2,1.081606600E0
5.671630860E0,8.416504860E-1,6.781094074E-1,9.924507141E-2,1.085383570E0
5.676605225E0,7.738704681E-1,7.521114349E-1,1.565313339E-1,1.090435312E0
5.681579590E0,7.092852592E-1,7.926585674E-1,2.201948166E-1,1.086222326E0
5.686523438E0,6.384172440E-1,8.421027660E-1,3.195648193E-1,1.104008750E0
5.691497803E0,5.824971199E-1,8.820941448E-1,3.362569809E-1,1.109261796E0
5.696472168E0,5.750679970E-1,9.473862648E-1,3.696737289E-1,1.168290461E0
5.701446533E0,6.065001488E-1,9.631021023E-1,3.680868149E-1,1.196200649E0
5.706390381E0,6.297187805E-1,9.898350239E-1,3.478631973E-1,1.223653513E0
5.711364746E0,7.155137062E-1,9.623124599E-1,2.708740234E-1,1.229381093E0
5.716339111E0,7.765722275E-1,8.723628521E-1,2.013835907E-1,1.185173709E0
5.721313477E0,8.155016899E-1,7.955813408E-1,1.670560837E-1,1.151477491E0
5.726257324E0,8.645129204E-1,7.621455193E-1,9.527015686E-2,1.156427596E0
5.731231690E0,9.293212891E-1,7.717156410E-1,2.047252655E-2,1.208139981E0
5.736206055E0,9.875946045E-1,7.718977928E-1,-4.181861877E-2,1.254160318E0
5.741149902E0,9.848899841E-1,8.066694736E-1,-1.336145401E-1,1.280069047E0
5.746124268E0,9.210100174E-1,8.029084206E-1,-1.953401566E-1,1.237367836E0
5.751098633E0,8.479256630E-1,8.076047897E-1,-2.072591782E-1,1.189184508E0
5.756072998E0,7.545218468E-1,8.236339092E-1,-2.760734558E-1,1.150605313E0
5.761016846E0,6.146168709E-1,9.132993221E-1,-2.991685867E-1,1.140776662E0
5.765991211E0,4.556884766E-1,1.002754927E0,-3.370513916E-1,1.151856359E0
5.770965576E0,2.911882401E-1,1.024891615E0,-3.059196472E-1,1.108503606E0
5.775939942E0,1.236028671E-1,1.050129175E0,-3.212375641E-1,1.105098424E0
5.780883789E0,-2.422332764E-2,1.109021187E0,-3.433952332E-1,1.161221361E0
5.785858154E0,-1.767187119E-1,1.156287432E0,-3.802070618E-1,1.229954283E0
5.790832520E0,-2.692084312E-1,1.250159740E0,-4.076471329E-1,1.342217844E0
5.795806885E0,-3.561058044E-1,1.405612946E0,-4.866275787E-1,1.529498446E0
5.800750733E0,-4.283547401E-1,1.494024277E0,-5.351209641E-1,1.643761165E0
5.805725098E0,-4.866046906E-1,1.516152382E0,-5.406293869E-1,1.681601113E0
5.810699463E0,-5.192184448E-1,1.562715292E0,-4.833707809E-1,1.716191769E0
5.815673828E0,-5.556530952E-1,1.505756140E0,-4.412136078E-1,1.664548396E0
5.820617676E0,-4.768233299E-1,1.559275627E0,-3.754920959E-1,1.673228999E0
5.825592041E0,-4.961309433E-1,1.739673615E0,-4.087753296E-1,1.854644836E0
5.830566406E0,-5.022096634E-1,1.798523188E0,-3.836336136E-1,1.906324986E0
5.835540772E0,-5.577745438E-1,1.747545719E0,-3.961372375E-1,1.876686759E0
5.840484619E0,-5.867586136E-1,1.657305717E0,-3.398656845E-1,1.790658146E0
5.845458985E0,-5.284380913E-1,1.604640484E0,-2.446269989E-1,1.707032591E0
5.850433350E0,-4.380264282E-1,1.558534622E0,-1.842994690E-1,1.629375222E0
5.855377197E0,-3.237237930E-1,1.636114120E0,-2.376241684E-1,1.684675564E0
5.860351563E0,-2.142553329E-1,1.741568804E0,-2.962465286E-1,1.779530627E0
5.865325928E0,-1.457576752E-1,1.812605858E0,-2.597532272E-1,1.836915086E0
5.870300293E0,-1.602959633E-1,1.700577259E0,-2.028474808E-1,1.720117702E0
5.875244141E0,-1.537957191E-1,1.553876162E0,-9.306716919E-2,1.564239670E0
5.880218506E0,-1.211676598E-1,1.515281200E0,-9.946823120E-4,1.520118320E0
5.885192871E0,-2.482604980E-2,1.623562336E0,1.720619202E-2,1.623843294E0
5.890167236E0,-3.734111786E-3,1.571230650E0,1.193056107E-1,1.575758080E0
5.895111084E0,7.780361176E-2,1.686568022E0,1.709709167E-1,1.696996213E0
5.900085449E0,1.013422012E-1,1.790831804E0,1.315355301E-1,1.798513383E0
5.905059815E0,5.714178085E-2,1.802550554E0,1.384506226E-1,1.808762632E0
5.910034180E0,3.714895248E-2,1.795158148E0,9.970855713E-2,1.798308821E0
5.914978027E0,2.137088776E-2,1.654086828E0,1.318130493E-1,1.659468177E0
5.919952393E0,-1.016235352E-2,1.634061933E0,1.534605026E-1,1.641283583E0
5.924926758E0,6.488132477E-2,1.642514825E0,1.499919891E-1,1.650624771E0
5.929901123E0,1.896128654E-1,1.580233693E0,2.174739838E-1,1.606358147E0
5.934844971E0,3.112168312E-1,1.535545826E0,2.354068756E-1,1.584352643E0
5.939819336E0,3.952469826E-1,1.439434409E0,2.864503860E-1,1.519949150E0
5.944793701E0,4.456491470E-1,1.344279885E0,2.847366333E-1,1.444564475E0
5.949768067E0,5.365839005E-1,1.247589469E0,3.295593262E-1,1.397501741E0
5.954711914E0,6.290626526E-1,1.418550253E0,2.053890228E-1,1.565308050E0
5.959686279E0,5.927248001E-1,1.422534227E0,1.090383530E-1,1.544932257E0
5.964660645E0,5.666379929E-1,1.324967384E0,5.812454224E-2,1.442219001E0
5.969635010E0,5.192303658E-1,1.287444234E0,2.935218811E-2,1.388515171E0
5.974578858E0,5.014743805E-1,1.324727178E0,6.521320343E-2,1.417967352E0
5.979553223E0,3.766999245E-1,1.265200257E0,-1.099872589E-2,1.320134651E0
5.984527588E0,3.669953346E-1,1.225239396E0,-2.238082886E-2,1.279217751E0
5.989501953E0,3.255786896E-1,1.226095319E0,-8.509635925E-2,1.271437220E0
5.994445801E0,3.584451675E-1,1.313553452E0,-1.633872986E-1,1.371350072E0
5.999420166E0,4.328336716E-1,1.532727957E0,-2.562513351E-1,1.613153658E0
6.004394531E0,4.686031342E-1,1.241676688E0,-9.301280975E-2,1.330413950E0
6.009368897E0,4.490442276E-1,8.316245079E-1,-2.101802826E-2,9.453474483E-1
6.014312744E0,3.714599609E-1,8.134021759E-1,-8.870124817E-3,8.942506816E-1
6.019287110E0,3.492345810E-1,9.425840378E-1,-1.897783279E-1,1.022959078E0
6.024261475E0,3.566231728E-1,9.815742970E-1,-2.720232010E-1,1.079196372E0
6.029205322E0,4.585995674E-1,8.687498569E-1,-1.668901443E-1,9.964397611E-1
6.034179688E0,5.858359337E-1,8.602522612E-1,-1.356945038E-1,1.049595490E0
6.039154053E0,7.289795876E-1,9.283942580E-1,-1.794309616E-1,1.193952515E0
6.044128418E0,8.848457336E-1,1.043375731E0,-7.348442078E-2,1.370030966E0
6.049072266E0,9.062123299E-1,1.085939646E0,-3.161239624E-2,1.414738508E0
6.054046631E0,9.337143898E-1,1.065208793E0,6.968784332E-2,1.418220268E0
6.059020996E0,8.742284775E-1,1.183452606E0,-1.170063019E-2,1.471384520E0
6.063995361E0,7.871212959E-1,1.190770984E0,-5.141067505E-2,1.428334179E0
6.068939209E0,7.142724991E-1,1.278125048E0,-1.269779205E-1,1.469663986E0
6.073913574E0,7.050104141E-1,1.459173918E0,-2.657909393E-1,1.642215890E0
6.078887940E0,7.530627251E-1,1.508450150E0,-3.378324509E-1,1.719492974E0
6.083862305E0,7.562355995E-1,1.579684973E0,-4.331445694E-1,1.804137221E0
6.088806152E0,6.854672432E-1,1.515450954E0,-5.225811005E-1,1.743429936E0
6.093780518E0,6.903491020E-1,1.458925843E0,-6.181297302E-1,1.728331815E0
6.098754883E0,7.348084450E-1,1.391466260E0,-6.720895767E-1,1.711089186E0
6.103698731E0,7.744526863E-1,1.293760896E0,-6.963605881E-1,1.660876963E0
6.108673096E0,7.613315582E-1,1.204932690E0,-7.321176529E-1,1.602337288E0
6.113647461E0,7.492561340E-1,1.131782770E0,-8.057994843E-1,1.578489722E0
6.118621826E0,7.579989433E-1,1.094467163E0,-8.592033386E-1,1.584503438E0
6.123565674E0,7.178931236E-1,1.056747437E0,-9.307928085E-1,1.580652060E0
6.128540039E0,6.600847244E-1,8.651309609E-1,-9.808216095E-1,1.464982748E0
6.133514404E0,6.560587883E-1,7.830185890E-1,-9.963045120E-1,1.426938655E0
6.138488770E0,6.937561035E-1,7.638932467E-1,-1.033195496E0,1.460247704E0
6.143432617E0,7.051286697E-1,6.939706206E-1,-1.018738747E0,1.420081088E0
6.148406983E0,6.848115921E-1,5.824267268E-1,-1.020244598E0,1.359811329E0
6.153381348E0,7.325358391E-1,5.334370136E-1,-1.018875122E0,1.363550629E0
6.158355713E0,7.669029236E-1,4.791294932E-1,-9.556951523E-1,1.315696922E0
6.163299561E0,7.866148949E-1,5.012860298E-1,-9.608268738E-1,1.339118724E0
6.168273926E0,8.183751106E-1,4.646871388E-1,-9.352731705E-1,1.326803626E0
6.173248291E0,8.548264503E-1,3.683363497E-1,-8.068428040E-1,1.231825977E0
6.178222656E0,9.095306396E-1,2.867812812E-1,-6.986122131E-1,1.182179560E0
6.183166504E0,8.951854706E-1,2.415103912E-1,-6.426153183E-1,1.128112912E0
6.188140869E0,9.392423630E-1,2.325553298E-1,-5.996131897E-1,1.138329555E0
6.193115235E0,9.112610817E-1,2.396988571E-1,-5.570802689E-1,1.094618987E0
6.198089600E0,8.639588356E-1,2.035624385E-1,-5.494146347E-1,1.043896057E0
6.203033447E0,7.923378944E-1,1.821787953E-1,-5.067005157E-1,9.579842718E-1
6.208007813E0,7.177896500E-1,1.544954181E-1,-4.708700180E-1,8.722438820E-1
6.212982178E0,6.382822990E-1,1.003520489E-1,-4.742765427E-1,8.015067473E-1
6.217956543E0,5.081315041E-1,1.947647333E-2,-4.451856613E-1,6.758455678E-1
6.222900391E0,4.456958771E-1,-8.963507414E-2,-3.821678162E-1,5.939120314E-1
6.227874756E0,4.188199043E-1,-1.415294409E-1,-4.156436920E-1,6.067951661E-1
6.232849121E0,3.835692406E-1,-1.272606254E-1,-3.764495850E-1,5.522996642E-1
6.237792969E0,3.408823013E-1,-1.560907364E-1,-3.861045837E-1,5.381838078E-1
6.242767334E0,2.875862122E-1,-2.064608932E-1,-3.674631119E-1,5.102558852E-1
6.247741699E0,2.396569252E-1,-3.008733988E-1,-3.609552383E-1,5.274930596E-1
6.252716065E0,2.085046768E-1,-3.200614452E-1,-3.281269073E-1,5.035680652E-1
6.257659912E0,2.237296104E-1,-3.338694572E-1,-3.928375244E-1,5.620009552E-1
6.262634277E0,2.177629471E-1,-5.903804302E-1,-2.666597366E-1,6.834304417E-1
6.267608643E0,1.517405510E-1,-7.793087959E-1,-2.527532578E-1,8.332056190E-1
6.272583008E0,1.899733543E-1,-8.401498795E-1,-2.268629074E-1,8.907347945E-1
6.277526856E0,2.956938744E-1,-7.283147573E-1,-2.642536163E-1,8.292811507E-1
6.282501221E0,4.134550095E-1,-6.773384809E-1,-2.344341278E-1,8.274610703E-1
6.287475586E0,4.835686684E-1,-8.813637495E-1,-1.839714050E-1,1.022001073E0
6.292449951E0,4.987444878E-1,-8.814531565E-1,-8.430671692E-2,1.016274251E0
6.297393799E0,6.518492699E-1,-6.877268553E-1,-1.316318512E-1,9.566622405E-1
6.302368164E0,8.524079323E-1,-5.518358946E-1,-1.616115570E-1,1.028221976E0
6.307342529E0,1.058121443E0,-5.057451725E-1,-7.769107819E-2,1.175344660E0
6.312316895E0,1.298733473E0,-5.023189783E-1,3.640365601E-2,1.392967414E0
6.317260742E0,1.529241085E0,-4.638854265E-1,1.631507874E-1,1.606358044E0
6.322235108E0,1.698798180E0,-5.020068884E-1,1.533546448E-1,1.778044943E0
6.327209473E0,1.904709101E0,-6.468772888E-1,1.517200470E-1,2.017271910E0
6.332153320E0,2.133764505E0,-9.345593452E-1,2.701787949E-1,2.345069021E0
6.337127686E0,2.342198849E0,-1.316797018E0,3.407411575E-1,2.708496699E0
6.342102051E0,2.594906330E0,-1.507961988E0,4.100408554E-1,3.029128872E0
6.347076416E0,2.927274942E0,-1.512820482E0,3.797883987E-1,3.316896686E0
6.352020264E0,3.202218294E0,-1.409297705E0,2.691926956E-1,3.508958069E0
6.356994629E0,3.415210247E0,-1.254894495E0,1.552667618E-1,3.641775527E0
6.361968994E0,3.576482058E0,-1.089926243E0,1.735687256E-2,3.738912193E0
6.366943360E0,3.753541708E0,-9.373631477E-1,-5.976676941E-2,3.869276042E0
6.371887207E0,3.938725233E0,-8.979847431E-1,-1.429977417E-1,4.042323764E0
6.376861572E0,4.132671356E0,-9.790096283E-1,-1.876335144E-1,4.251192624E0
6.381835938E0,4.277186394E0,-1.061654806E0,-2.433652878E-1,4.413690184E0
6.386810303E0,4.495835304E0,-8.803329468E-1,-2.143707275E-1,4.586226770E0
6.391754151E0,4.619590282E0,-8.058431149E-1,-1.368665695E-1,4.691346285E0
6.396728516E0,4.729447365E0,-8.882720470E-1,-3.270435333E-2,4.812251986E0
6.401702881E0,4.923483849E0,-1.000343561E0,7.295036316E-2,5.024609657E0
6.406677246E0,5.077231884E0,-1.063338995E0,1.671323776E-1,5.190077712E0
6.411621094E0,5.217897415E0,-1.066883326E0,2.775669098E-1,5.333079491E0
6.416595459E0,5.275468349E0,-1.031977177E0,3.580884933E-1,5.387371397E0
6.421569824E0,5.268763542E0,-1.022762537E0,4.107542038E-1,5.382808884E0
6.426544190E0,5.263646126E0,-1.029856443E0,4.625902176E-1,5.383359968E0
6.431488037E0,5.208503723E0,-9.910962582E-1,3.671178818E-1,5.314655056E0
6.436462402E0,5.104811668E0,-8.831119537E-1,2.245464325E-1,5.185499975E0
6.441436768E0,4.999070644E0,-8.125448227E-1,7.931613922E-2,5.065296383E0
6.446411133E0,4.881441116E0,-7.482266426E-1,-4.800033569E-2,4.938685505E0
6.451354981E0,4.762217045E0,-7.122917175E-1,-1.531162262E-1,4.817625479E0
6.456329346E0,4.625634193E0,-7.650523186E-1,-1.847257614E-1,4.692112568E0
6.461303711E0,4.462071419E0,-9.256687164E-1,-2.544565201E-1,4.564174848E0
6.466247559E0,4.293130875E0,-1.074422836E0,-3.357133865E-1,4.438249724E0
6.471221924E0,4.113030434E0,-1.252136707E0,-4.028091431E-1,4.318231222E0
6.476196289E0,3.978969336E0,-1.417732716E0,-6.517505646E-1,4.273984303E0
6.481170654E0,3.884750366E0,-1.436621189E0,-9.787025452E-1,4.255939910E0
6.486114502E0,3.822136641E0,-1.361151218E0,-1.280093193E0,4.254421197E0
6.491088867E0,3.841511250E0,-1.351889133E0,-1.597665787E0,4.374625570E0
6.496063233E0,3.911301374E0,-1.380096912E0,-1.861206055E0,4.546100957E0
6.501037598E0,4.044453621E0,-1.379779339E0,-2.000408173E0,4.718371432E0
6.505981445E0,4.190261841E0,-1.370009899E0,-2.178190231E0,4.917289304E0
6.510955811E0,4.405044556E0,-1.364232540E0,-2.320301056E0,5.162300355E0
6.515930176E0,4.637581348E0,-1.251711845E0,-2.489723206E0,5.410421883E0
6.520904541E0,4.837418556E0,-1.449584961E0,-2.527850151E0,5.647295037E0
6.525848389E0,5.019998550E0,-1.452279091E0,-2.578456879E0,5.827344153E0
6.530822754E0,5.162379742E0,-1.344216824E0,-2.578585625E0,5.925047450E0
6.535797119E0,5.280132294E0,-1.246976376E0,-2.665365219E0,6.044743077E0
6.540771485E0,5.222856998E0,-1.190906525E0,-2.744288445E0,6.018937833E0
6.545715332E0,4.341785431E0,-1.528582096E0,-2.782242775E0,5.378525710E0
6.550689697E0,4.642812729E0,-1.207186222E0,-2.813079834E0,5.561153366E0
6.555664063E0,5.241363525E0,-1.081603050E0,-3.166682243E0,6.218491231E0
6.560638428E0,5.258815289E0,-9.668197632E-1,-3.539166451E0,6.412143000E0
6.565582276E0,4.744295120E0,-9.037108421E-1,-3.930572510E0,6.226911733E0
6.570556641E0,3.908828020E0,-1.067402363E0,-3.890775681E0,5.617510097E0
6.575531006E0,4.235628128E0,-4.151859283E-1,-3.680960655E0,5.626934897E0
6.580505371E0,4.032785416E0,-2.943029404E-1,-3.984071732E0,5.676513013E0
6.585449219E0,3.717271090E0,-7.214117050E-2,-4.315180779E0,5.695971722E0
6.590423584E0,3.500368357E0,2.334804535E-1,-4.856330872E0,5.990913227E0
6.595397949E0,3.076667070E0,3.326983452E-1,-5.015067577E0,5.893001888E0
6.600341797E0,2.559422970E0,4.333815575E-1,-5.012797356E0,5.645051181E0
6.605316162E0,1.937506199E0,4.606204033E-1,-5.087758064E0,5.463641967E0
6.610290527E0,1.284693718E0,4.297175407E-1,-5.200625420E0,5.374160387E0
6.615264893E0,6.608935595E-1,-1.759958267E-1,-5.177409172E0,5.222386482E0
6.620208740E0,1.516762972E-1,-1.180004120E0,-5.451841354E0,5.580142433E0
6.625183106E0,-3.963189125E-1,-1.999242783E0,-5.777816296E0,6.126761096E0
6.630157471E0,-7.118842602E-1,-2.060680389E0,-6.313024044E0,6.678881302E0
6.635131836E0,-1.013078809E0,-1.728444099E0,-6.620924950E0,6.917405212E0
6.640075684E0,-1.081348181E0,-1.017916679E0,-6.923622608E0,7.081102900E0
6.645050049E0,-9.506615400E-1,-3.376650810E-1,-7.053444862E0,7.125226979E0
6.650024414E0,-7.029870749E-1,6.392955780E-3,-7.080371857E0,7.115187793E0
6.654998779E0,-6.737354398E-1,-1.412668228E-1,-7.305124283E0,7.337487073E0
6.659973145E0,-9.870080352E-1,-5.366621017E-1,-7.857267857E0,7.937181442E0
6.664916992E0,-1.337043762E0,-1.278460979E0,-8.121920586E0,8.329930522E0
6.669891358E0,-1.635909796E0,-2.069662571E0,-8.244161606E0,8.655975081E0
6.674865723E0,-1.896743298E0,-2.683297157E0,-8.428818703E0,9.046695722E0
6.679840088E0,-1.923780799E0,-3.066773415E0,-8.610110283E0,9.340237193E0
6.684783936E0,-1.839236379E0,-3.209566593E0,-8.614662170E0,9.375313994E0
6.689758301E0,-1.712660313E0,-3.171919823E0,-8.385545731E0,9.127522003E0
6.694702149E0,-1.657755733E0,-3.057939053E0,-8.117038727E0,8.830937833E0
6.699676514E0,-1.610824823E0,-2.929773808E0,-7.987392902E0,8.658913128E0
6.704650879E0,-1.520282745E0,-2.799980640E0,-7.888095379E0,8.507243967E0
6.709625244E0,-1.591452122E0,-2.771228313E0,-7.717479229E0,8.352958271E0
6.714599610E0,-1.797660112E0,-3.116503239E0,-7.223051071E0,8.069488280E0
6.719543457E0,-1.971028686E0,-3.513416767E0,-6.932441711E0,8.017967295E0
6.724517822E0,-2.182746887E0,-3.930685997E0,-6.686398029E0,8.057455863E0
6.729492188E0,-2.269033670E0,-4.386480808E0,-6.432284832E0,8.109501578E0
6.734436035E0,-2.033795595E0,-4.674361229E0,-6.077142239E0,7.932063742E0
6.739410401E0,-1.381657124E0,-4.809811115E0,-5.502705097E0,7.437944794E0
6.744384766E0,-8.908567429E-1,-4.820477009E0,-5.007473469E0,7.007525588E0
6.749359131E0,-7.217633724E-1,-4.649219990E0,-4.560450077E0,6.552396034E0
6.754333496E0,-7.876658440E-1,-4.559881210E0,-4.158627033E0,6.221504073E0
6.759277344E0,-8.777537346E-1,-4.609285355E0,-3.933432579E0,6.122732638E0
6.764251709E0,-7.786118984E-1,-4.524802685E0,-3.848880768E0,5.991156732E0
6.769226074E0,-4.861607552E-1,-4.407996655E0,-3.599671841E0,5.711779420E0
6.774169922E0,-2.018873692E-1,-4.309896946E0,-3.144120216E0,5.338676065E0
6.779144287E0,-6.723833084E-2,-4.286503315E0,-2.597069263E0,5.012324852E0
6.784118652E0,6.266403198E-2,-4.350275993E0,-2.065022945E0,4.815926470E0
6.789062500E0,4.461832047E-1,-4.330355644E0,-1.458747387E0,4.591187580E0
6.794036865E0,8.597488403E-1,-4.273956776E0,-8.127889633E-1,4.434692829E0
6.799011231E0,1.134465694E0,-4.493451118E0,-2.828016281E-1,4.643069257E0
6.803985596E0,1.218873978E0,-4.893977165E0,2.851057053E-2,5.043558180E0
6.808959961E0,1.157927990E0,-5.119541168E0,1.956558228E-1,5.252502280E0
6.813903809E0,1.008736134E0,-5.128790855E0,3.676128387E-2,5.227178552E0
6.818878174E0,8.299922943E-1,-4.965878963E0,-2.726488113E-1,5.042140266E0
6.823852539E0,4.626502991E-1,-4.887669563E0,-4.443554878E-1,4.929585262E0
6.828826904E0,2.302551270E-2,-4.946860790E0,-6.400952339E-1,4.988154344E0
6.833770752E0,-4.373669624E-1,-5.156533718E0,-6.487746239E-1,5.215557339E0
6.838745117E0,-8.257694244E-1,-5.508643627E0,-5.353755951E-1,5.595862470E0
6.843719483E0,-1.096862793E0,-5.942708492E0,-3.379545212E-1,6.052528849E0
6.848663330E0,-1.257258892E0,-6.355714321E0,-6.229162216E-2,6.479173149E0
6.853637695E0,-1.209159851E0,-6.644299984E0,3.092226982E-1,6.760503568E0
6.858612061E0,-1.058777332E0,-6.834892273E0,7.109379768E-1,6.952855142E0
6.863586426E0,-8.287124634E-1,-6.951555252E0,1.107538700E0,7.087843589E0
6.868530274E0,-5.627689362E-1,-7.084134579E0,1.446902752E0,7.252254765E0
6.873504639E0,-2.879643440E-1,-7.259027004E0,1.982315063E0,7.530336614E0
6.878479004E0,5.793094635E-3,-7.521842957E0,2.553182125E0,7.943355336E0
6.883453369E0,2.815403938E-1,-7.781336308E0,3.166886330E0,8.405809226E0
6.888397217E0,5.764570236E-1,-8.093156815E0,3.725924969E0,8.928270090E0
6.893371582E0,9.040584564E-1,-8.346833229E0,4.131114006E0,9.356978656E0
6.898345947E0,1.218543530E0,-8.590666771E0,4.286171436E0,9.677585933E0
6.903320313E0,1.532269955E0,-8.805130005E0,4.324406624E0,9.928678576E0
6.908264160E0,1.803050995E0,-8.979954720E0,4.259232998E0,1.010107150E1
6.913238526E0,1.944872379E0,-9.103194237E0,4.217081070E0,1.021931733E1
6.918212891E0,1.997336864E0,-9.291605949E0,4.213409901E0,1.039596646E1
6.923187256E0,1.842035770E0,-9.531778336E0,4.400439262E0,1.065888173E1
6.928131104E0,2.115137577E0,-9.476268768E0,4.461698532E0,1.068551499E1
6.933105469E0,2.384855747E0,-9.787422180E0,4.370244503E0,1.098090192E1
6.938079834E0,1.953969955E0,-1.013211346E1,4.564467907E0,1.128326588E1
6.943023682E0,1.866642475E0,-1.029691315E1,4.708331108E0,1.147515387E1
6.947998047E0,2.076562881E0,-1.034845161E1,4.574464321E0,1.150340332E1
6.952972412E0,2.184158802E0,-1.038500023E1,4.720019341E0,1.161453236E1
6.957946777E0,2.246670246E0,-1.071869469E1,5.097403049E0,1.207979556E1
6.962890625E0,2.303874016E0,-1.110960960E1,5.385871410E0,1.255941368E1
6.967864990E0,2.271369457E0,-1.134666061E1,5.581145287E0,1.284737362E1
6.972839356E0,2.177770615E0,-1.149407768E1,5.714098930E0,1.301950203E1
6.977813721E0,2.010546207E0,-1.160850716E1,5.727893353E0,1.309994262E1
6.982757569E0,1.868612766E0,-1.197408199E1,5.378942013E0,1.325908633E1
6.987731934E0,1.781095982E0,-1.189008713E1,5.410716534E0,1.318416961E1
6.992706299E0,1.960532188E0,-1.181382942E1,4.898854256E0,1.293866396E1
6.997680664E0,2.465691566E0,-1.163022041E1,4.319066525E0,1.264895242E1
7.002624512E0,2.927994728E0,-1.157385635E1,3.833531380E0,1.253887024E1
7.007598877E0,3.282189846E0,-1.163873291E1,3.506102562E0,1.259069613E1
7.012573242E0,3.355804443E0,-1.182926750E1,3.503499508E0,1.278544101E1
7.017547608E0,3.155621529E0,-1.223988342E1,3.568088531E0,1.313407588E1
7.022491455E0,3.161665916E0,-1.253958893E1,3.431944847E0,1.337967366E1
7.027465820E0,3.470251083E0,-1.253521347E1,3.131475925E0,1.337835419E1
7.032440186E0,3.811544418E0,-1.259565735E1,2.784506798E0,1.345109412E1
7.037414551E0,4.024783611E0,-1.268961811E1,2.710058212E0,1.358564339E1
7.042358399E0,4.085568905E0,-1.281235027E1,2.743114471E0,1.372489963E1
7.047332764E0,4.063710213E0,-1.278480339E1,2.813097000E0,1.370687613E1
7.052307129E0,3.994736671E0,-1.277243042E1,2.896255970E0,1.369237739E1
7.057281494E0,3.917572021E0,-1.294482899E1,2.938907146E0,1.384027251E1
7.062225342E0,3.801301003E0,-1.322279549E1,2.984579086E0,1.407834941E1
7.067199707E0,3.683299065E0,-1.342058849E1,2.994018555E0,1.423527431E1
7.072174072E0,3.487744331E0,-1.355387497E1,2.949459076E0,1.430283874E1
7.077148438E0,3.332358360E0,-1.364204693E1,2.910423040E0,1.434156961E1
7.082092285E0,3.209147453E0,-1.375053692E1,2.878313303E0,1.441043304E1
7.087066651E0,3.135748863E0,-1.388606071E1,2.931743145E0,1.453446666E1
7.092041016E0,3.158402443E0,-1.417678070E1,2.931310654E0,1.481719269E1
7.096984863E0,3.224494934E0,-1.436618328E1,2.946854353E0,1.501560989E1
7.101959229E0,3.290544510E0,-1.453760052E1,2.945104837E0,1.519352344E1
7.106933594E0,3.287469864E0,-1.469857788E1,3.049630642E0,1.536736467E1
7.111907959E0,3.281027794E0,-1.484067535E1,3.218652248E0,1.553610346E1
7.116851807E0,3.339066505E0,-1.514998245E1,3.368915319E0,1.587516689E1
7.121826172E0,3.422665596E0,-1.539194202E1,3.451890469E0,1.614131552E1
7.126800537E0,3.506105423E0,-1.546254253E1,3.441722870E0,1.622431672E1
7.131774902E0,3.557147980E0,-1.549355221E1,3.374272346E0,1.625082077E1
7.136718750E0,3.529007912E0,-1.559654713E1,3.395373821E0,1.634731606E1
7.141693115E0,3.531576157E0,-1.581759644E1,3.433306694E0,1.656671307E1
7.146667481E0,3.690576553E0,-1.612229347E1,3.407195330E0,1.688661251E1
7.151641846E0,3.837320328E0,-1.635739136E1,3.192100286E0,1.710201110E1
7.156585694E0,3.976217270E0,-1.652471542E1,2.872925282E0,1.723746569E1
7.161560059E0,4.053437233E0,-1.664672661E1,2.651211977E0,1.733703507E1
7.166534424E0,4.148387909E0,-1.672107124E1,2.589187860E0,1.742145917E1
7.171478272E0,4.208353043E0,-1.682145691E1,2.538002968E0,1.752464285E1
7.176452637E0,4.205796242E0,-1.694802475E1,2.367519617E0,1.762184480E1
7.181427002E0,4.076198578E0,-1.707522774E1,2.139112949E0,1.768486928E1
7.186401367E0,3.674088478E0,-1.729676056E1,2.144995689E0,1.781229515E1
7.191345215E0,3.186017036E0,-1.741247749E1,2.008668423E0,1.781515719E1
7.196319580E0,2.458362579E0,-1.726431084E1,1.669634819E0,1.751820926E1
7.201293945E0,1.691261292E0,-1.702514839E1,1.325985909E0,1.716025295E1
7.206268311E0,1.071382523E0,-1.688392067E1,1.087274551E0,1.695278159E1
7.211212158E0,5.030307770E-1,-1.689117241E1,8.950373530E-1,1.692234727E1
7.216186524E0,9.034156799E-3,-1.702337837E1,8.183724880E-1,1.704304041E1
7.221160889E0,-3.925571442E-1,-1.716197968E1,7.726888657E-1,1.718384985E1
7.226135254E0,-6.746711731E-1,-1.717065048E1,6.062577963E-1,1.719459123E1
7.231079102E0,-8.510904312E-1,-1.727733612E1,4.014343619E-1,1.730294333E1
7.236053467E0,-9.356908798E-1,-1.731421280E1,3.577102423E-1,1.734316692E1
7.241027832E0,-8.794183731E-1,-1.734893608E1,3.207803369E-1,1.737417221E1
7.246002197E0,-8.341569901E-1,-1.742551804E1,3.792376518E-1,1.744959363E1
7.250946045E0,-8.151388168E-1,-1.758466911E1,3.710371256E-1,1.760746170E1
7.255920410E0,-6.585445404E-1,-1.766848946E1,2.601047754E-1,1.768267104E1
7.260894776E0,-4.870939255E-1,-1.757214546E1,1.215937138E-1,1.757931573E1
7.265869141E0,-5.108127594E-1,-1.738076782E1,1.715273857E-1,1.738911848E1
7.270812988E0,-4.821949005E-1,-1.737831306E1,3.351683617E-1,1.738823208E1
7.275787354E0,-5.687351227E-1,-1.744937897E1,-3.147625923E-2,1.745867340E1
7.280761719E0,-5.383958817E-1,-1.740147400E1,-2.328915596E-1,1.741135853E1
7.285736084E0,-4.607477188E-1,-1.707840729E1,-5.995211601E-1,1.709513702E1
7.290679932E0,-5.440101624E-1,-1.684193420E1,-1.058160305E0,1.688390944E1
7.295654297E0,-5.834188461E-1,-1.658478737E1,-1.588055611E0,1.667085691E1
7.300628662E0,-5.995712280E-1,-1.623898888E1,-2.041432619E0,1.637778045E1
7.305603027E0,-6.641492844E-1,-1.593639469E1,-2.346461058E0,1.612189969E1
7.310546875E0,-7.509365082E-1,-1.577124023E1,-2.555840969E0,1.599463183E1
7.315521240E0,-7.904644012E-1,-1.546843338E1,-2.880756140E0,1.575423820E1
7.320495606E0,-8.030090332E-1,-1.508386612E1,-3.287366390E0,1.545880391E1
7.325439453E0,-8.371944427E-1,-1.454351521E1,-3.709053993E0,1.503235878E1
7.330413819E0,-8.425264359E-1,-1.364253616E1,-4.090773582E0,1.426755313E1
7.335388184E0,-8.898544312E-1,-1.280189514E1,-4.439760208E0,1.357909536E1
7.340362549E0,-1.053574562E0,-1.214066696E1,-4.753287315E0,1.308050282E1
7.345306397E0,-1.241065979E0,-1.160238457E1,-4.927667141E0,1.266639159E1
7.350280762E0,-1.462642670E0,-1.105416107E1,-5.045608044E0,1.223895261E1
7.355255127E0,-1.742813587E0,-1.063086891E1,-5.024570465E0,1.188692901E1
7.360229492E0,-2.040800095E0,-1.039824104E1,-4.989364147E0,1.171247354E1
7.365173340E0,-2.223125458E0,-1.030822372E1,-4.929339886E0,1.164045338E1
7.370147705E0,-2.422855377E0,-1.017929077E1,-4.812424183E0,1.151727465E1
7.375122070E0,-2.767672539E0,-9.837026596E0,-4.672676563E0,1.123659245E1
7.380096436E0,-3.155857086E0,-9.318658829E0,-4.546863079E0,1.083839472E1
7.385040283E0,-3.534889221E0,-8.719847679E0,-4.432622433E0,1.040092914E1
7.390014649E0,-3.836708546E0,-8.285776138E0,-4.343982697E0,1.011160741E1
7.394989014E0,-4.136147022E0,-7.956575394E0,-4.190222740E0,9.898119559E0
7.399932861E0,-4.425063610E0,-7.727014065E0,-4.048612118E0,9.781574229E0
7.404907227E0,-4.667136192E0,-7.475603580E0,-3.941184998E0,9.654001674E0
7.409881592E0,-4.922424793E0,-7.190530777E0,-3.709275246E0,9.470624137E0
7.414855957E0,-5.140140533E0,-7.053645134E0,-3.423833370E0,9.375371423E0
7.419799805E0,-5.430208683E0,-6.862189770E0,-2.487203121E0,9.097416894E0
7.424774170E0,-5.249835968E0,-6.732693195E0,-2.871324062E0,9.007465638E0
7.429748535E0,-5.389338970E0,-6.912192822E0,-2.988758564E0,9.260456894E0
7.434722901E0,-5.519970894E0,-6.633296967E0,-2.755953312E0,9.059027871E0
7.439666748E0,-5.646872044E0,-6.200894356E0,-2.670356750E0,8.801650974E0
7.444641113E0,-5.825740337E0,-5.781675816E0,-2.462313175E0,8.569131338E0
7.449615479E0,-5.959294319E0,-5.443858147E0,-2.243807316E0,8.377556420E0
7.454589844E0,-6.003661633E0,-5.176071167E0,-2.105291843E0,8.201702230E0
7.459564209E0,-6.018006325E0,-4.893567562E0,-1.954258442E0,7.998908030E0
7.464508057E0,-5.966414452E0,-4.611985207E0,-1.827789307E0,7.759466651E0
7.469482422E0,-5.980103493E0,-4.432086945E0,-1.719010830E0,7.639373711E0
7.474456787E0,-5.953304768E0,-4.244931221E0,-1.635273457E0,7.492355972E0
7.479400635E0,-5.883382320E0,-3.924267292E0,-1.493945122E0,7.228134845E0
7.484375000E0,-5.714762688E0,-3.545105457E0,-1.269924641E0,6.843901948E0
7.489349365E0,-5.406579971E0,-3.296438217E0,-1.083342552E0,6.424269841E0
7.494323731E0,-5.064086437E0,-3.136330128E0,-8.282103539E-1,6.013939682E0
7.499267578E0,-4.787175655E0,-3.049906254E0,-6.134138107E-1,5.709225465E0
7.504241944E0,-4.503333092E0,-2.992691517E0,-4.693450928E-1,5.427383925E0
7.509216309E0,-4.223734379E0,-2.875650406E0,-3.711180687E-1,5.123185140E0
7.514190674E0,-3.911363602E0,-2.738048553E0,-3.175725937E-1,4.785031605E0
7.519134522E0,-3.638552666E0,-2.552826881E0,-2.196092606E-1,4.450193121E0
7.524108887E0,-3.367052078E0,-2.461044312E0,-1.442751884E-1,4.173079694E0
7.529083252E0,-3.066902637E0,-2.358917713E0,-6.354475021E-2,3.869679896E0
7.534027100E0,-2.774203777E0,-2.288610935E0,8.722925186E-2,3.597437359E0
7.539001465E0,-2.508492470E0,-2.262431145E0,2.051596642E-1,3.384260576E0
7.543975830E0,-2.246076107E0,-2.211275101E0,2.478256226E-1,3.161647195E0
7.548950195E0,-2.008035660E0,-2.181223869E0,2.300496101E-1,2.973695950E0
7.553894043E0,-1.796575069E0,-2.095539093E0,1.914482117E-1,2.766878835E0
7.558868408E0,-1.614891529E0,-1.949407578E0,1.814651489E-1,2.537911376E0
7.563842774E0,-1.495392323E0,-1.779362679E0,1.073336601E-1,2.326768200E0
7.568817139E0,-1.428519249E0,-1.645845890E0,6.193828583E-2,2.180209231E0
7.573760986E0,-1.333026409E0,-1.570679188E0,1.945018768E-2,2.060187086E0
7.578735352E0,-1.248553753E0,-1.447752953E0,6.924819946E-2,1.913026502E0
7.583709717E0,-1.178974628E0,-1.310545444E0,1.554327011E-1,1.769652469E0
7.588684082E0,-1.113563538E0,-1.234323502E0,2.730178833E-1,1.684671191E0
7.593627930E0,-1.036996841E0,-1.205095291E0,3.670186996E-1,1.631661679E0
7.598602295E0,-9.982028008E-1,-1.146050930E0,4.939336777E-1,1.598065094E0
7.603576660E0,-9.787850380E-1,-1.082996845E0,7.214989662E-1,1.628331378E0
7.608551026E0,-9.772891998E-1,-1.037496567E0,8.154001236E-1,1.642062931E0
7.613494873E0,-8.587002754E-1,-1.031159878E0,8.516864777E-1,1.589347889E0
7.618469238E0,-8.535585403E-1,-9.918074608E-1,9.072899818E-1,1.592300013E0
7.623443604E0,-9.127430916E-1,-7.811508179E-1,8.463554382E-1,1.469562547E0
7.628417969E0,-9.217343330E-1,-6.444830894E-1,8.037371635E-1,1.382369727E0
7.633361817E0,-9.093794823E-1,-5.494508743E-1,7.297701836E-1,1.288965410E0
7.638336182E0,-8.932733536E-1,-4.828319550E-1,6.874814034E-1,1.226252283E0
7.643310547E0,-8.862409592E-1,-4.417195320E-1,6.849193573E-1,1.204015660E0
7.648254395E0,-7.614169121E-1,-4.303607941E-1,6.612095833E-1,1.096432506E0
7.653228760E0,-7.098350525E-1,-4.031996727E-1,6.559348106E-1,1.047227890E0
7.658203125E0,-7.325592041E-1,-3.717164993E-1,5.485153198E-1,9.877677862E-1
7.663177490E0,-7.294778824E-1,-2.882132530E-1,4.159526825E-1,8.878183903E-1
7.668121338E0,-7.220482826E-1,-1.888318062E-1,2.611083984E-1,7.906887942E-1
7.673095703E0,-7.164421082E-1,-1.701116562E-1,1.426815987E-1,7.500568702E-1
7.678070069E0,-6.826124191E-1,-1.430497169E-1,7.777404785E-2,7.017633068E-1
7.683044434E0,-7.060246468E-1,-1.226434708E-1,-2.319812775E-2,7.169730650E-1
7.687988281E0,-7.828211784E-1,-9.516954422E-2,-1.257767677E-1,7.985524622E-1
7.692962647E0,-8.946723938E-1,2.236366272E-2,-2.835102081E-1,9.387847803E-1
7.697937012E0,-9.670596123E-1,2.071571350E-1,-3.105401993E-1,1.036606766E0
7.702911377E0,-9.564561844E-1,3.317241669E-1,-4.287981987E-1,1.099416778E0
7.707855225E0,-9.637136459E-1,3.879046440E-1,-5.680432320E-1,1.184013141E0
7.712829590E0,-9.443435669E-1,3.926987648E-1,-6.316809654E-1,1.202088988E0
7.717803955E0,-9.339447021E-1,4.170427322E-1,-7.681016922E-1,1.279123746E0
7.722778320E0,-8.889851570E-1,4.317135811E-1,-8.437275887E-1,1.299441214E0
7.727722168E0,-8.126773834E-1,4.334235191E-1,-8.900647163E-1,1.280826169E0
7.732696533E0,-7.727341652E-1,4.217691422E-1,-9.794692993E-1,1.316953837E0
7.737670899E0,-7.127342224E-1,5.497150421E-1,-1.100744247E0,1.421905270E0
7.742645264E0,-6.397123337E-1,5.509657860E-1,-1.198432684E0,1.465959094E0
7.747589111E0,-5.913219452E-1,4.313187599E-1,-1.257659197E0,1.455130293E0
7.752563477E0,-5.673713684E-1,2.910251617E-1,-1.391062498E0,1.530248603E0
7.757537842E0,-4.701433182E-1,3.141570091E-1,-1.488593578E0,1.592369369E0
7.762512207E0,-3.635950089E-1,3.569283485E-1,-1.594238997E0,1.673677733E0
7.767456055E0,-2.530031204E-1,3.102827072E-1,-1.817857742E0,1.861422227E0
7.772430420E0,-1.789579391E-1,2.914733887E-1,-2.008512497E0,2.037426104E0
7.777404785E0,-1.184902191E-1,2.764239311E-1,-2.177467823E0,2.198139268E0
7.782348633E0,-2.234029770E-2,2.330846786E-1,-2.245791435E0,2.257965174E0
7.787322998E0,9.986209869E-2,1.867671013E-1,-2.302202463E0,2.311923565E0
7.792297363E0,2.017779350E-1,1.540369987E-1,-2.370163202E0,2.383718804E0
7.797271729E0,2.459092140E-1,9.885978699E-2,-2.410192251E0,2.424720868E0
7.802246094E0,2.794485092E-1,6.079912186E-2,-2.506882668E0,2.523142626E0
7.807189942E0,3.746085167E-1,-3.935337067E-2,-2.516407728E0,2.544442588E0
7.812164307E0,4.899697304E-1,-1.713285446E-1,-2.494044065E0,2.547484957E0
7.817138672E0,6.075305939E-1,-3.401823044E-1,-2.520634174E0,2.615036150E0
7.822113037E0,7.059550285E-1,-5.184473991E-1,-2.462212563E0,2.613360081E0
7.827056885E0,7.435479164E-1,-6.494421959E-1,-2.445091963E0,2.636875685E0
7.832031250E0,7.648997307E-1,-7.766056061E-1,-2.441766500E0,2.674025338E0
7.837005615E0,7.581334114E-1,-9.072055817E-1,-2.415285110E0,2.689124468E0
7.841949463E0,7.083353996E-1,-1.039555550E0,-2.425886631E0,2.732643542E0
7.846923828E0,6.139440536E-1,-1.168958664E0,-2.392271042E0,2.732462698E0
7.851898194E0,5.151319504E-1,-1.224843502E0,-2.437077999E0,2.775779477E0
7.856872559E0,3.431386948E-1,-1.318331242E0,-2.500801325E0,2.847762050E0
7.861816406E0,2.555069923E-1,-1.425872803E0,-2.597723961E0,2.974317880E0
7.866790772E0,1.627225876E-1,-1.507970810E0,-2.736951828E0,3.129114877E0
7.871765137E0,5.831575394E-2,-1.594427109E0,-2.900637627E0,3.310482921E0
7.876739502E0,-4.293775558E-2,-1.668509007E0,-3.102854729E0,3.523275950E0
7.881683350E0,-1.631031036E-1,-1.706989288E0,-3.335583925E0,3.750537985E0
7.886657715E0,-3.022513390E-1,-1.745757103E0,-3.631324291E0,4.040487575E0
7.891632080E0,-4.116773605E-1,-1.770539761E0,-3.887073755E0,4.291110774E0
7.896575928E0,-5.110077858E-1,-1.912234306E0,-4.129481316E0,4.579343286E0
7.901550293E0,-6.206340790E-1,-2.136013985E0,-4.414368153E0,4.943115272E0
7.906524658E0,-6.949396133E-1,-2.373583794E0,-4.747979164E0,5.353517277E0
7.911499024E0,-8.081889153E-1,-2.515646935E0,-5.120471954E0,5.762020640E0
7.916442871E0,-9.166693687E-1,-2.654711723E0,-5.505791664E0,6.180737732E0
7.921417236E0,-1.067666531E0,-2.894781113E0,-5.959602356E0,6.710926147E0
7.926391602E0,-1.255406857E0,-3.130561352E0,-6.481270790E0,7.306389793E0
7.931365967E0,-1.349251747E0,-3.330360889E0,-6.952704906E0,7.826358633E0
7.936309815E0,-1.389680386E0,-3.553758144E0,-7.469993114E0,8.388158657E0
7.941284180E0,-1.479377747E0,-3.818821430E0,-8.015447617E0,9.001075276E0
7.946258545E0,-1.533525467E0,-3.970335960E0,-8.550365448E0,9.551126493E0
7.951232910E0,-1.560854435E0,-3.937518597E0,-9.051994324E0,9.993944192E0
7.956176758E0,-1.401457787E0,-3.986575127E0,-9.576496124E0,1.046738473E1
7.961151123E0,-1.791123390E0,-4.012309551E0,-1.002695084E1,1.094744235E1
7.966125488E0,-1.966308117E0,-3.980061054E0,-1.040504932E1,1.131248448E1
7.971099854E0,-2.063620567E0,-3.947541714E0,-1.072780704E1,1.161582797E1
7.976043701E0,-2.272217751E0,-3.877936363E0,-1.089649010E1,1.178706326E1
7.981018067E0,-2.407264709E0,-4.018026829E0,-1.104533005E1,1.199744885E1
7.985992432E0,-2.466875076E0,-4.357138634E0,-1.123733521E1,1.230235068E1
7.990966797E0,-2.486201763E0,-4.370674610E0,-1.122823524E1,1.230273394E1
7.995941162E0,-2.449930668E0,-4.739415646E0,-1.128773880E1,1.248508182E1
8.000885010E0,-2.334829330E0,-5.140719414E0,-1.127890015E1,1.261316822E1
8.005859375E0,-2.208262444E0,-5.661161900E0,-1.120910263E1,1.275026113E1
8.010803223E0,-2.077507496E0,-6.210496426E0,-1.107619667E1,1.286733989E1
8.015777588E0,-1.922366142E0,-6.810142517E0,-1.088404655E1,1.298214166E1
8.020751953E0,-1.796265125E0,-7.395691872E0,-1.061293316E1,1.305975409E1
8.025726319E0,-1.679812431E0,-7.900292397E0,-1.032219696E1,1.310664487E1
8.030670166E0,-1.598297596E0,-8.322059631E0,-9.971673965E0,1.308608090E1
8.035644531E0,-1.598988056E0,-8.765039444E0,-9.656935692E0,1.313921939E1
8.040618897E0,-1.588965416E0,-9.320205688E0,-9.307391167E0,1.326719923E1
8.045593262E0,-1.545984745E0,-9.970241547E0,-8.931392670E0,1.347462654E1
8.050537110E0,-1.498451233E0,-1.055808830E1,-8.614465714E0,1.370866894E1
8.055511475E0,-1.457318783E0,-1.111865234E1,-8.313596725E0,1.395937314E1
8.060485840E0,-1.424280643E0,-1.172005272E1,-8.079225540E0,1.430601609E1
8.065460205E0,-1.388253689E0,-1.217702293E1,-7.880842209E0,1.457102638E1
8.070404053E0,-1.327959061E0,-1.267237949E1,-7.714932442E0,1.489539727E1
8.075378418E0,-1.261533737E0,-1.324457645E1,-7.689908981E0,1.536700924E1
8.080352783E0,-1.092727661E0,-1.379883957E1,-7.678477764E0,1.582912025E1
8.085327149E0,-9.762043953E-1,-1.393242264E1,-7.629901886E0,1.591479747E1
8.090270996E0,-9.183549881E-1,-1.398277664E1,-7.636157036E0,1.595845584E1
8.095245361E0,-7.752919197E-1,-1.404425049E1,-7.647044182E0,1.600997608E1
