"Time (s)","Acceleration x (m/s^2)","Acceleration y (m/s^2)","Acceleration z (m/s^2)"
0.000000000E0,-1.409088135E0,2.639602661E0,1.066496277E1
2.502441000E-3,-1.611999512E0,2.603103638E0,1.090797424E1
4.974365000E-3,-1.696395874E0,2.551620483E0,1.090797424E1
7.476806000E-3,-1.778396606E0,2.510314941E0,1.094569397E1
9.948730000E-3,-1.851425171E0,2.494155884E0,1.100553894E1
1.245117200E-2,-1.891525269E0,2.422927856E0,1.105761719E1
1.492309500E-2,-1.868179321E0,2.448669434E0,1.114680481E1
1.742553700E-2,-1.905899048E0,2.382232666E0,1.111088562E1
1.989746100E-2,-1.947784424E0,2.299026489E0,1.116894531E1
2.236938400E-2,-1.919067383E0,2.318191528E0,1.114859009E1
2.484130800E-2,-1.867584229E0,2.300827026E0,1.112525940E1
2.734375000E-2,-1.864593506E0,2.322982788E0,1.103846741E1
2.981567300E-2,-1.809524536E0,2.236785889E0,1.101213074E1
3.231811500E-2,-1.765228271E0,2.245162964E0,1.093132019E1
3.482055600E-2,-1.689819336E0,2.223022461E0,1.083496094E1
3.729248000E-2,-1.641326904E0,2.176330566E0,1.070626831E1
3.979492200E-2,-1.517425537E0,2.118865967E0,1.062007141E1
4.226684500E-2,-1.481521606E0,2.078765869E0,1.047283936E1
4.473876900E-2,-1.368988037E0,2.073974609E0,1.026393127E1
4.721069300E-2,-1.334274292E0,2.027893066E0,1.016398621E1
4.971313400E-2,-1.324691772E0,2.049438477E0,9.941925049E0
5.218505800E-2,-1.296569824E0,2.045852661E0,9.790481567E0
5.468750000E-2,-1.248687744E0,1.991973877E0,9.573211670E0
5.715942300E-2,-1.229522705E0,1.932128906E0,9.405609131E0
5.966186500E-2,-1.238510132E0,1.944091797E0,9.242218018E0
6.213378900E-2,-1.266036987E0,1.973419189E0,9.038711548E0
6.460571300E-2,-1.237915039E0,2.020111084E0,8.841186523E0
6.710815400E-2,-1.279205322E0,2.043457031E0,8.684356689E0
6.958007800E-2,-1.300750732E0,2.062011719E0,8.553878784E0
7.205200200E-2,-1.359420776E0,2.117675781E0,8.382095337E0
7.455444300E-2,-1.396530151E0,2.096725464E0,8.280944824E0
7.702636700E-2,-1.453979492E0,2.131439209E0,8.197738647E0
7.949829100E-2,-1.560531616E0,2.169143677E0,8.111557007E0
8.200073200E-2,-1.596435547E0,2.175140381E0,8.075637817E0
8.447265600E-2,-1.731719971E0,2.185302734E0,8.066665649E0
8.697509700E-2,-1.758056641E0,2.200271606E0,7.957122803E0
8.944702100E-2,-1.829879761E0,2.217636108E0,7.936172485E0
9.191894500E-2,-1.899902344E0,2.206253052E0,7.862548828E0
9.442138600E-2,-1.978912354E0,2.202667236E0,7.874526978E0
9.689331000E-2,-2.015426636E0,2.169754028E0,7.766189575E0
9.936523400E-2,-2.084854126E0,2.200866699E0,7.666824341E0
1.018676750E-1,-2.153686523E0,2.224212646E0,7.640487671E0
1.043395990E-1,-2.198577881E0,2.217025757E0,7.568069458E0
1.068420410E-1,-2.267410278E0,2.233795166E0,7.548309326E0
1.093139650E-1,-2.328460693E0,2.259521484E0,7.492645264E0
1.117858880E-1,-2.350616455E0,2.309814453E0,7.438781738E0
1.142883300E-1,-2.347030640E0,2.367874146E0,7.424407959E0
1.167602540E-1,-2.288970947E0,2.364273071E0,7.373535156E0
1.192626950E-1,-2.381134033E0,2.370254517E0,7.385513306E0
1.217346190E-1,-2.443984985E0,2.294250488E0,7.325653076E0
1.242065430E-1,-2.436203003E0,2.416946411E0,7.469909668E0
1.267089840E-1,-2.474517822E0,2.478591919E0,7.447158813E0
1.291809080E-1,-2.429626465E0,2.464828491E0,7.480682373E0
1.316528320E-1,-2.434417725E0,2.539657593E0,7.515991211E0
1.341552730E-1,-2.332656860E0,2.604888916E0,7.509414673E0
1.366271970E-1,-2.285369873E0,2.568984985E0,7.545318604E0
1.390991210E-1,-2.227905273E0,2.555816650E0,7.592010498E0
1.416015620E-1,-2.164459229E0,2.601898193E0,7.624923706E0
1.440734860E-1,-2.084854126E0,2.606094360E0,7.711120605E0
1.465759270E-1,-2.040573120E0,2.570770264E0,7.774566650E0
1.490478510E-1,-1.967544556E0,2.584548950E0,7.891876221E0
1.515197750E-1,-1.855606079E0,2.565994263E0,8.009796143E0
1.540222160E-1,-1.800552368E0,2.518707275E0,8.128311157E0
1.564941400E-1,-1.766433716E0,2.473815918E0,8.298294067E0
1.589660640E-1,-1.732910156E0,2.425323486E0,8.316848755E0
1.614685060E-1,-1.620986938E0,2.333145142E0,8.341995239E0
1.639404290E-1,-1.562927246E0,2.316986084E0,8.422195435E0
1.664428710E-1,-1.351638794E0,2.236190796E0,8.786712646E0
1.689147950E-1,-1.409698486E0,2.204467773E0,8.689147949E0
1.713867180E-1,-1.411483765E0,2.085357666E0,8.598770142E0
1.738891600E-1,-1.432434082E0,2.082962036E0,8.685562134E0
1.763610840E-1,-1.442016602E0,2.076965332E0,8.529937744E0
1.788330070E-1,-1.568908691E0,2.178726196E0,8.272567749E0
1.813354490E-1,-1.452789307E0,2.144012451E0,8.346176147E0
1.838073730E-1,-1.494689941E0,2.282867432E0,8.561660767E0
1.863098140E-1,-1.553344727E0,2.477996826E0,8.483856201E0
1.887817380E-1,-1.538375854E0,2.477996826E0,8.532928467E0
1.912536620E-1,-1.590454102E0,2.498352051E0,8.316848755E0
1.937561030E-1,-1.733505249E0,2.557601929E0,7.845794678E0
1.962280270E-1,-1.476730347E0,2.407363892E0,8.486236572E0
1.986999510E-1,-1.351028442E0,2.488769531E0,8.455718994E0
2.012023920E-1,-1.209182739E0,2.431320190E0,8.749603271E0
2.036743160E-1,-1.070907593E0,2.415756226E0,8.692749023E0
2.061462400E-1,-1.062530518E0,2.364273071E0,8.736434937E0
2.086486810E-1,-9.625701904E-1,2.188308716E0,8.793899536E0
2.111206050E-1,-1.063125610E0,2.169143677E0,8.752593994E0
2.136230470E-1,-1.043380737E0,2.089538574E0,8.792694092E0
2.160949700E-1,-1.075103760E0,2.034469604E0,8.763366699E0
2.185668940E-1,-1.151123047E0,1.945892334E0,8.783721924E0
2.210693360E-1,-1.223541260E0,2.017715454E0,8.793304443E0
2.235412590E-1,-1.337860107E0,2.048248291E0,8.875900269E0
2.260131830E-1,-1.456985474E0,2.075775146E0,8.892059326E0
2.285156250E-1,-1.681442261E0,2.166748047E0,8.840591431E0
2.309875480E-1,-1.702987671E0,2.170944214E0,8.850753784E0
2.334899900E-1,-1.781997681E0,2.208053589E0,8.992019653E0
2.359619140E-1,-1.740097046E0,2.194885254E0,9.022537231E0
2.384338380E-1,-1.735305786E0,2.230194092E0,9.068038940E0
2.409362790E-1,-1.674850464E0,2.148193359E0,8.994415283E0
2.434082030E-1,-1.672454834E0,2.167358398E0,9.099761963E0
2.458801270E-1,-1.618591309E0,2.208053589E0,9.093765259E0
2.483825680E-1,-1.627563477E0,2.230194092E0,9.219467163E0
2.508544920E-1,-1.626968384E0,2.158966064E0,9.106338501E0
2.533569330E-1,-1.649719238E0,2.123062134E0,9.208099365E0
2.558288570E-1,-1.685623169E0,2.120071411E0,9.180557251E0
2.583007810E-1,-1.676651001E0,2.123657227E0,9.135070801E0
2.608032220E-1,-1.663482666E0,2.125457764E0,9.088378906E0
2.632751460E-1,-1.659881592E0,2.137420654E0,9.105743408E0
2.657470700E-1,-1.697601318E0,2.155380249E0,9.124298096E0
2.682495110E-1,-1.679046631E0,2.130844116E0,9.058456421E0
2.707214350E-1,-1.665267944E0,2.182907104E0,9.036911011E0
2.732238770E-1,-1.607208252E0,2.212844849E0,8.981246948E0
2.756958000E-1,-1.582077026E0,2.260131836E0,8.926773071E0
2.781677240E-1,-1.564117432E0,2.297241211E0,8.875305176E0
2.806701660E-1,-1.479125977E0,2.312805176E0,8.866317749E0
2.831420900E-1,-1.509048462E0,2.318191528E0,8.844772339E0
2.856140130E-1,-1.535385132E0,2.358291626E0,8.786117554E0
2.881164550E-1,-1.537780762E0,2.366073608E0,8.789108276E0
2.905883790E-1,-1.550949097E0,2.389419556E0,8.721466064E0
2.930908200E-1,-1.558731079E0,2.426528931E0,8.715484619E0
2.955627440E-1,-1.635345459E0,2.416946411E0,8.692138672E0
2.980346680E-1,-1.677246094E0,2.464828491E0,8.717880249E0
3.005371090E-1,-1.685028076E0,2.517501831E0,8.630493164E0
3.030090330E-1,-1.759841919E0,2.512710571E0,8.558670044E0
3.054809570E-1,-1.812515259E0,2.537857056E0,8.501205444E0
3.079833980E-1,-1.852020264E0,2.634826660E0,8.517959595E0
3.104553220E-1,-1.954971313E0,2.639602661E0,8.446731567E0
3.129577630E-1,-2.016616821E0,2.676116943E0,8.398254395E0
3.154296870E-1,-2.041763306E0,2.634826660E0,8.363540649E0
3.179016110E-1,-2.110000610E0,2.659957886E0,8.304885864E0
3.204040520E-1,-2.110000610E0,2.608489990E0,8.282730103E0
3.228759760E-1,-2.144119263E0,2.573760986E0,8.210311890E0
3.253479000E-1,-2.233291626E0,2.530670166E0,8.203125000E0
3.278503410E-1,-2.299743652E0,2.495956421E0,8.089996338E0
3.303222650E-1,-2.322479248E0,2.514511108E0,8.105560303E0
3.328247070E-1,-2.422439575E0,2.540252686E0,7.994827271E0
3.352966310E-1,-2.521194458E0,2.472015381E0,7.993041992E0
3.377685540E-1,-2.621765137E0,2.481597900E0,7.874526978E0
3.402709960E-1,-2.727096558E0,2.477996826E0,7.899658203E0
3.427429200E-1,-2.757629395E0,2.472610474E0,7.805099487E0
3.452148430E-1,-2.819885254E0,2.528274536E0,7.763198853E0
3.477172850E-1,-2.840820312E0,2.527084351E0,7.756607056E0
3.501892090E-1,-2.903671265E0,2.515106201E0,7.667419434E0
3.526916500E-1,-2.910263062E0,2.551025391E0,7.677597046E0
3.551635740E-1,-2.870162964E0,2.543243408E0,7.560882568E0
3.576354980E-1,-2.900680542E0,2.540252686E0,7.550109863E0
3.601379390E-1,-2.894104004E0,2.563598633E0,7.515396118E0
3.626098630E-1,-2.845611572E0,2.633026123E0,7.380722046E0
3.650817870E-1,-2.800125122E0,2.613265991E0,7.379516602E0
3.675842280E-1,-2.746261597E0,2.682098389E0,7.330444336E0
3.700561520E-1,-2.660659790E0,2.735977173E0,7.352584839E0
3.725585930E-1,-2.579864502E0,2.805999756E0,7.272979736E0
3.750305170E-1,-2.545745850E0,2.914337158E0,7.295135498E0
3.775024410E-1,-2.452362061E0,3.008911133E0,7.334030151E0
3.800048820E-1,-2.372161865E0,3.122039795E0,7.308288574E0
3.824768060E-1,-2.268020630E0,3.187286377E0,7.361572266E0
3.849487300E-1,-2.165069580E0,3.254913330E0,7.325653076E0
3.874511720E-1,-2.102218628E0,3.330932617E0,7.324462891E0
3.899230950E-1,-2.034576416E0,3.435089111E0,7.405853271E0
3.924255370E-1,-1.965744019E0,3.452438354E0,7.374130249E0
3.948974610E-1,-1.923843384E0,3.545211792E0,7.408859253E0
3.973693840E-1,-1.904098511E0,3.581726074E0,7.492050171E0
3.998718260E-1,-1.865783691E0,3.620635986E0,7.450149536E0
4.023437500E-1,-1.869979858E0,3.611053467E0,7.541732788E0
4.048156730E-1,-1.864593506E0,3.594299316E0,7.595596313E0
4.073181150E-1,-1.890335083E0,3.591308594E0,7.696762085E0
4.097900390E-1,-1.916061401E0,3.578140259E0,7.793121338E0
4.122924800E-1,-1.904098511E0,3.531448364E0,7.888885498E0
4.147644040E-1,-1.923843384E0,3.450042725E0,7.939773560E0
4.172363280E-1,-1.893325806E0,3.398574829E0,8.034942627E0
4.197387690E-1,-1.883148193E0,3.309982300E0,8.091796875E0
4.222106930E-1,-1.852020264E0,3.238754272E0,8.138488770E0
4.246826170E-1,-1.872375488E0,3.164535522E0,8.193557739E0
4.271850580E-1,-1.872375488E0,3.115463257E0,8.198944092E0
4.296569820E-1,-1.858612061E0,3.026870728E0,8.276748657E0
4.321594230E-1,-1.850219727E0,3.023880005E0,8.376113892E0
4.346313470E-1,-1.799942017E0,2.986175537E0,8.437164307E0
4.371032710E-1,-1.724533081E0,2.938278198E0,8.442550659E0
4.396057130E-1,-1.683822632E0,2.988555908E0,8.402450562E0
4.420776360E-1,-1.683822632E0,3.045425415E0,8.389877319E0
4.445495600E-1,-1.631164551E0,3.063385010E0,8.408432007E0
4.470520020E-1,-1.615600586E0,3.108871460E0,8.431777954E0
4.495239250E-1,-1.625762939E0,3.190872192E0,8.437164307E0
4.520263670E-1,-1.613800049E0,3.229187012E0,8.385086060E0
4.544982910E-1,-1.612594604E0,3.250732422E0,8.330627441E0
4.569702150E-1,-1.677246094E0,3.323150635E0,8.381500244E0
4.594726560E-1,-1.735305786E0,3.363250732E0,8.368331909E0
4.619445800E-1,-1.736495972E0,3.339309692E0,8.391067505E0
4.644165040E-1,-1.784988403E0,3.335723877E0,8.432373047E0
4.669189450E-1,-1.798156738E0,3.309387207E0,8.526947021E0
4.693908690E-1,-1.843643188E0,3.279464722E0,8.519760132E0
4.718933100E-1,-1.890930176E0,3.278854370E0,8.516174316E0
4.743652340E-1,-1.939407349E0,3.220794678E0,8.542510986E0
4.768676750E-1,-1.961563110E0,3.235168457E0,8.567047119E0
4.793395990E-1,-2.014831543E0,3.183090210E0,8.494628906E0
4.818115230E-1,-2.060913086E0,3.131622314E0,8.567642212E0
4.842834470E-1,-2.045959473E0,3.152572632E0,8.568847656E0
4.867858880E-1,-2.074676514E0,3.171722412E0,8.585601807E0
4.892578120E-1,-2.099822998E0,3.234573364E0,8.550292969E0
4.917602540E-1,-2.141723633E0,3.158554077E0,8.503601074E0
4.942321770E-1,-2.166259766E0,3.117248535E0,8.505401611E0
4.967041010E-1,-2.195587158E0,3.107070923E0,8.460510254E0
4.992065430E-1,-2.270416260E0,3.063980103E0,8.421600342E0
5.016784660E-1,-2.317092896E0,2.983779907E0,8.385681152E0
5.041503900E-1,-2.421844482E0,2.869445801E0,8.325836182E0
5.066528320E-1,-2.511032104E0,2.780868530E0,8.271362305E0
5.091247560E-1,-2.602005005E0,2.676712036E0,8.227066040E0
5.116271970E-1,-2.689392090E0,2.558212280E0,8.084014893E0
5.140991210E-1,-2.715133667E0,2.389419556E0,7.954727173E0
5.165710450E-1,-2.728897095E0,2.302627563E0,7.884704590E0
5.190734860E-1,-2.729492188E0,2.259521484E0,7.753021240E0
5.215454100E-1,-2.715728760E0,2.189498901E0,7.679992676E0
5.240173340E-1,-2.704360962E0,2.188308716E0,7.605178833E0
5.265197750E-1,-2.749847412E0,2.201477051E0,7.502227783E0
5.289916990E-1,-2.758224487E0,2.216430664E0,7.375335693E0
5.314941400E-1,-2.731887817E0,2.255340576E0,7.287353516E0
5.339660640E-1,-2.677429199E0,2.331359863E0,7.264602661E0
5.364379880E-1,-2.688796997E0,2.380432129E0,7.139511108E0
5.389404290E-1,-2.682205200E0,2.435501099E0,7.056304932E0
5.414123530E-1,-2.703155518E0,2.475601196E0,6.919235229E0
5.438842770E-1,-2.654083252E0,2.568374634E0,6.696578979E0
5.463867180E-1,-2.593032837E0,2.608489990E0,6.596023560E0
5.488586420E-1,-2.561904907E0,2.639007568E0,6.440399170E0
5.513305660E-1,-2.521194458E0,2.716217041E0,6.364379883E0
5.538330070E-1,-2.452362061E0,2.778472900E0,6.336853027E0
5.563049310E-1,-2.370361328E0,2.823364258E0,6.299133301E0
5.588073730E-1,-2.306320190E0,2.835937500E0,6.294952393E0
5.612792970E-1,-2.244674683E0,2.805999756E0,6.274002075E0
5.637512200E-1,-2.170455933E0,2.854492188E0,6.181823730E0
5.662536620E-1,-2.114181519E0,2.795227051E0,6.104019165E0
5.687255860E-1,-2.087844849E0,2.648590088E0,6.035186768E0
5.712280270E-1,-2.033386230E0,2.528869629E0,5.862792969E0
5.736999510E-1,-2.048339844E0,2.477996826E0,5.808929443E0
5.761718750E-1,-2.111190796E0,2.498947144E0,5.814910889E0
5.786743160E-1,-2.194992065E0,2.503738403E0,5.875961304E0
5.811462400E-1,-2.226715088E0,2.437896729E0,5.866394043E0
5.836181640E-1,-2.358398438E0,2.498352051E0,6.058517456E0
5.861206050E-1,-2.611587524E0,2.649185181E0,6.184814453E0
5.885925290E-1,-2.565490723E0,2.450469971E0,6.280578613E0
5.910949700E-1,-2.544540405E0,2.378036499E0,6.454757690E0
5.935668940E-1,-2.536758423E0,2.187103271E0,6.792343140E0
5.960388180E-1,-2.542144775E0,2.075775146E0,7.095809937E0
5.985412590E-1,-2.435012817E0,2.008132935E0,7.342407227E0
6.010131830E-1,-2.471527100E0,1.944686890E0,7.451950073E0
6.034851070E-1,-2.348220825E0,1.813613892E0,7.620742798E0
6.059875480E-1,-2.272201538E0,1.799835205E0,7.723098755E0
6.084594720E-1,-2.157287598E0,1.711853027E0,7.717102051E0
6.109619140E-1,-2.039962769E0,1.619674683E0,7.582427979E0
6.134338380E-1,-1.835861206E0,1.476623535E0,7.507019043E0
6.159057610E-1,-1.661682129E0,1.418563843E0,7.379516602E0
6.184082030E-1,-1.504257202E0,1.334762573E0,7.292129517E0
6.208801270E-1,-1.388153076E0,1.117492676E0,7.239456177E0
6.233520500E-1,-1.248077393E0,1.093551636E0,7.081451416E0
6.258544920E-1,-1.102035522E0,9.762420654E-1,6.904281616E0
6.283264160E-1,-9.308471680E-1,8.684997559E-1,6.758819580E0
6.308288570E-1,-7.578735352E-1,7.589569092E-1,6.549331665E0
6.333007810E-1,-4.945068359E-1,7.505798340E-1,6.272796631E0
6.357727050E-1,-3.191375732E-1,6.949157715E-1,6.051940918E0
6.382751460E-1,-8.569335938E-2,6.997070312E-1,5.917861938E0
6.407470700E-1,1.016540527E-1,8.176269531E-1,5.807723999E0
6.432189940E-1,2.907867432E-1,8.230133057E-1,5.648513794E0
6.457214350E-1,4.583892822E-1,8.523406982E-1,5.482711792E0
6.481933590E-1,5.900573730E-1,8.972320557E-1,5.362411499E0
6.506652830E-1,7.355041504E-1,9.163818359E-1,5.290588379E0
6.531677240E-1,9.210662842E-1,9.205780029E-1,5.097854614E0
6.556396480E-1,1.035980225E0,8.786773682E-1,4.991302490E0
6.581420900E-1,1.138931274E0,8.224029541E-1,5.030807495E0
6.606140130E-1,1.179641724E0,7.667388916E-1,5.020034790E0
6.630859370E-1,9.827117920E-1,6.667938232E-1,5.405502319E0
6.655883790E-1,4.978942871E-1,3.902587891E-1,6.329666138E0
6.680603020E-1,-1.928405762E-1,1.376647949E-1,7.034164429E0
6.705627440E-1,2.742004395E-2,-1.257324219E-2,7.238265991E0
6.730346680E-1,-1.443634033E-1,-3.190307617E-1,7.669815063E0
6.755065910E-1,-1.515640259E0,-1.180343628E0,8.087005615E0
6.780090330E-1,-1.260055542E0,-9.798278809E-1,8.467681885E0
6.804809570E-1,-1.263046265E0,-1.302444458E0,8.598770142E0
6.829528810E-1,-1.446807861E0,-1.201889038E0,8.860931396E0
6.854553220E-1,-1.447402954E0,-1.034896851E0,8.977050781E0
6.879272460E-1,-1.528808594E0,-1.063018799E0,9.242813110E0
6.904296870E-1,-1.567108154E0,-1.152801514E0,9.349349976E0
6.929016110E-1,-1.588653564E0,-1.136047363E0,9.429565430E0
6.953735350E-1,-1.665878296E0,-1.197692871E0,9.567230225E0
6.978759760E-1,-1.710159302E0,-1.254562378E0,9.604934692E0
7.003479000E-1,-1.744277954E0,-1.275512695E0,9.634857178E0
7.028503410E-1,-1.782592773E0,-1.345535278E0,9.704299927E0
7.053222650E-1,-1.820892334E0,-1.417968750E0,9.697113037E0
7.077941890E-1,-1.861602783E0,-1.321594238E0,9.663589478E0
7.102966310E-1,-1.910079956E0,-1.494583130E0,9.576202393E0
7.127685540E-1,-1.984893799E0,-1.710662842E0,9.600143433E0
7.152404780E-1,-1.974731445E0,-1.625656128E0,9.473846436E0
7.177429200E-1,-2.027404785E0,-1.746566772E0,9.320022583E0
7.202148430E-1,-2.037567139E0,-1.859695435E0,9.222457886E0
7.226867670E-1,-2.116577148E0,-1.941696167E0,9.109329224E0
7.251892090E-1,-2.176437378E0,-2.002746582E0,9.328399658E0
7.276611320E-1,-2.196792603E0,-2.029678345E0,9.305664062E0
7.301635740E-1,-2.206359863E0,-2.309799194E0,9.282913208E0
7.326354980E-1,-2.153686523E0,-2.379241943E0,9.366714478E0
7.351074220E-1,-2.138122559E0,-2.447463989E0,9.302062988E0
7.376098630E-1,-2.094436646E0,-2.600708008E0,9.337982178E0
7.400817870E-1,-2.101623535E0,-2.679702759E0,9.317626953E0
7.425537110E-1,-2.135131836E0,-2.773681641E0,9.334396362E0
7.450561520E-1,-2.163269043E0,-2.817382812E0,9.303268433E0
7.475280760E-1,-2.203964233E0,-2.823364258E0,9.254180908E0
7.500305170E-1,-2.158477783E0,-2.881423950E0,9.263763428E0
7.525024410E-1,-2.155487061E0,-2.935287476E0,9.235031128E0
7.549743650E-1,-2.112991333E0,-2.901168823E0,9.170379639E0
7.574768060E-1,-2.087249756E0,-2.964019775E0,9.099761963E0
7.599487300E-1,-2.068099976E0,-3.032257080E0,9.046493530E0
7.624206540E-1,-1.973526001E0,-3.038238525E0,8.980041504E0
7.649230950E-1,-1.937622070E0,-3.141784668E0,8.830413818E0
7.673950190E-1,-1.956176758E0,-3.224990845E0,8.675979614E0
7.698669430E-1,-1.923843384E0,-3.202239990E0,8.537124634E0
7.723693840E-1,-1.982513428E0,-3.090316772E0,8.388076782E0
7.748413080E-1,-1.911880493E0,-3.351882935E0,8.239044189E0
7.773437500E-1,-1.758056641E0,-3.378219604E0,8.296508789E0
7.798156730E-1,-1.804733276E0,-3.314178467E0,8.147460938E0
7.822875970E-1,-1.805938721E0,-3.229171753E0,8.079223633E0
7.847900390E-1,-1.744888306E0,-3.219009399E0,7.978073120E0
7.872619630E-1,-1.702987671E0,-3.218399048E0,7.811080933E0
7.897338860E-1,-1.662887573E0,-3.264495850E0,7.610565186E0
7.922363280E-1,-1.606613159E0,-3.274063110E0,7.409454346E0
7.947082520E-1,-1.486312866E0,-3.254318237E0,7.317276001E0
7.972106930E-1,-1.397720337E0,-3.300399780E0,7.312484741E0
7.996826170E-1,-1.282806396E0,-3.316574097E0,7.346603394E0
8.021545410E-1,-1.172668457E0,-3.354278564E0,7.395690918E0
8.046569820E-1,-9.344482422E-1,-3.320755005E0,7.524368286E0
8.071289060E-1,-8.338928223E-1,-3.281250000E0,7.741043091E0
8.096008300E-1,-6.752777100E-1,-3.289031982E0,7.879318237E0
8.121032710E-1,-4.927215576E-1,-3.362060547E0,8.104965210E0
8.145751950E-1,-3.023681641E-1,-3.483566284E0,8.239639282E0
8.170776360E-1,-8.331298828E-2,-3.679290771E0,8.410232544E0
8.195495600E-1,1.591033936E-1,-3.772659302E0,8.485641479E0
8.220214840E-1,3.207092285E-1,-4.141372681E0,8.683166504E0
8.245239250E-1,5.810852051E-1,-4.474761963E0,8.801086426E0
8.269958490E-1,7.636413574E-1,-4.771041870E0,8.848968506E0
8.294677730E-1,8.761749268E-1,-4.900924683E0,8.987228394E0
8.319702150E-1,9.988708496E-1,-5.007476807E0,9.133270264E0
8.344421380E-1,1.113800049E0,-5.114608765E0,9.231445312E0
8.369445800E-1,1.222137451E0,-5.236709595E0,9.236831665E0
8.394165040E-1,1.322692871E0,-5.308547974E0,9.300277710E0
8.418884270E-1,1.380157471E0,-5.287597656E0,9.327804565E0
8.443908690E-1,1.489089966E0,-5.255264282E0,9.290695190E0
8.468627930E-1,1.549545288E0,-5.310943604E0,9.285308838E0
8.493652340E-1,1.588439941E0,-5.280410767E0,9.301467896E0
8.518371580E-1,1.653686523E0,-5.312133789E0,9.245803833E0
8.543090820E-1,1.677627563E0,-5.321716309E0,9.223663330E0
8.568115230E-1,1.748855591E0,-5.278610229E0,9.217071533E0
8.592834470E-1,1.802734375E0,-5.253479004E0,9.128494263E0
8.617553710E-1,1.823074341E0,-5.297164917E0,9.035110474E0
8.642578120E-1,1.860183716E0,-5.388748169E0,8.963882446E0
8.667297360E-1,1.881729126E0,-5.449798584E0,8.833404541E0
8.692016600E-1,1.886520386E0,-5.465957642E0,8.713088989E0
8.717041010E-1,1.799728394E0,-5.429443359E0,8.516174316E0
8.741760250E-1,1.848815918E0,-5.724533081E0,8.336608887E0
8.766784660E-1,1.826065063E0,-5.780197144E0,8.019378662E0
8.791503900E-1,1.757843018E0,-5.876571655E0,7.776962280E0
8.816223140E-1,1.675231934E0,-5.864593506E0,7.487258911E0
8.841247560E-1,1.581863403E0,-5.879562378E0,7.227493286E0
8.865966790E-1,1.518417358E0,-5.891525269E0,6.985076904E0
8.890686030E-1,1.523803711E0,-5.799346924E0,6.739669800E0
8.915710450E-1,1.466339111E0,-5.756851196E0,6.573867798E0
8.940429680E-1,1.475921631E0,-5.753265381E0,6.471527100E0
8.965454100E-1,1.454971313E0,-5.691619873E0,6.473312378E0
8.990173340E-1,1.448989868E0,-5.675460815E0,6.452362061E0
9.014892570E-1,1.448989868E0,-5.744888306E0,6.435012817E0
9.039916990E-1,1.445983887E0,-5.837066650E0,6.508041382E0
9.064636230E-1,1.501052856E0,-5.888534546E0,6.459548950E0
9.089660640E-1,1.475326538E0,-5.978317261E0,6.460754395E0
9.114379880E-1,1.522598267E0,-6.090255737E0,6.457153320E0
9.139099120E-1,1.498062134E0,-6.183029175E0,6.471527100E0
9.164123530E-1,1.451370239E0,-6.128555298E0,6.455963135E0
9.188842770E-1,1.474121094E0,-6.451766968E0,6.493072510E0
9.213562010E-1,1.589050293E0,-6.559509277E0,6.469131470E0
9.238586420E-1,1.604003906E0,-6.572082520E0,6.426635742E0
9.263305660E-1,1.556716919E0,-6.576278687E0,6.318298340E0
9.288330070E-1,1.456771851E0,-6.690597534E0,6.449981689E0
9.313049310E-1,1.505249023E0,-6.965927124E0,6.466140747E0
9.337768550E-1,1.526794434E0,-7.106582642E0,6.332061768E0
9.362792970E-1,1.469329834E0,-7.176025391E0,6.365585327E0
9.387512200E-1,1.588439941E0,-7.334030151E0,6.336853027E0
9.412231440E-1,1.598617554E0,-7.378921509E0,6.290161133E0
9.437255860E-1,1.472320557E0,-6.865966797E0,6.196182251E0
9.461975090E-1,1.643508911E0,-7.242462158E0,6.159683228E0
9.486694330E-1,1.506439209E0,-7.392700195E0,5.817306519E0
9.511718750E-1,1.419647217E0,-7.703338623E0,5.707778931E0
9.536437980E-1,1.443603516E0,-8.138488770E0,5.844833374E0
9.561462400E-1,1.569885254E0,-8.412033081E0,5.866394043E0
9.586181640E-1,1.622558594E0,-8.623321533E0,5.961563110E0
9.610900880E-1,1.849411011E0,-8.760986328E0,6.111190796E0
9.635925290E-1,2.101409912E0,-9.024948120E0,6.208755493E0
9.660644530E-1,2.226501465E0,-9.125503540E0,6.378143311E0
9.685363770E-1,2.363571167E0,-9.152435303E0,6.634323120E0
9.710388180E-1,2.479095459E0,-9.195526123E0,6.753433228E0
9.735107420E-1,2.608978271E0,-9.381683350E0,6.957550049E0
9.760131830E-1,2.751434326E0,-9.731826782E0,7.153869629E0
9.784851070E-1,2.870544434E0,-9.975433350E0,7.260406494E0
9.809570310E-1,2.984268188E0,-1.019570923E1,7.414840698E0
9.834594720E-1,3.141677856E0,-1.042375183E1,7.554901123E0
9.859313960E-1,3.299697876E0,-1.054765320E1,7.618942261E0
9.884338380E-1,3.387695312E0,-1.056141663E1,7.699752808E0
9.909057610E-1,3.451141357E0,-1.053868103E1,7.796112061E0
9.933776850E-1,3.605560303E0,-1.046745300E1,7.955932617E0
9.958801270E-1,3.671401978E0,-1.038963318E1,8.061279297E0
9.983520500E-1,3.751602173E0,-1.027111816E1,8.158828735E0
1.000823974E0,3.843185425E0,-1.024539185E1,8.233657837E0
1.003326416E0,3.907821655E0,-1.011250305E1,8.338394165E0
1.005798340E0,3.964691162E0,-1.002272034E1,8.426391602E0
1.008300781E0,4.017364502E0,-9.888656616E0,8.425186157E0
1.010772705E0,4.102355957E0,-9.871292114E0,8.419799805E0
1.013244629E0,4.187957764E0,-9.890441895E0,8.486846924E0
1.015747070E0,4.234634399E0,-9.892242432E0,8.461105347E0
1.018218994E0,4.265762329E0,-9.987411499E0,8.421600342E0
1.020690918E0,4.278930664E0,-1.003828430E1,8.478454590E0
1.023193359E0,4.311843872E0,-1.010652161E1,8.480255127E0
1.025665283E0,4.338790894E0,-1.009455872E1,8.507797241E0
1.028167724E0,4.226257324E0,-1.010772705E1,8.494018555E0
1.030639648E0,4.380081177E0,-1.035133362E1,8.476669312E0
1.033111572E0,4.435745239E0,-1.028608704E1,8.509582520E0
1.035614013E0,4.460296631E0,-1.014483643E1,8.605361938E0
1.038085937E0,4.514755249E0,-1.011370850E1,8.744812012E0
1.040557861E0,4.530914307E0,-1.007479858E1,8.974655151E0
1.043060302E0,4.580001831E0,-1.004428101E1,9.254180908E0
1.045532226E0,4.698516846E0,-1.001614380E1,9.503784180E0
1.048034668E0,4.745803833E0,-1.008737183E1,9.761749268E0
1.050506591E0,4.841567993E0,-1.014961243E1,9.903015137E0
1.052978515E0,4.896041870E0,-1.014721680E1,1.003289795E1
1.055480957E0,4.950500488E0,-1.012448120E1,1.009155273E1
1.057952881E0,5.016937256E0,-1.037586975E1,1.021365356E1
1.060455322E0,5.197113037E0,-1.035432434E1,1.034234619E1
1.062927246E0,5.229431152E0,-1.033038330E1,1.030464172E1
1.065399170E0,5.256362915E0,-1.027291870E1,1.033157349E1
1.067901611E0,5.242599487E0,-1.026155090E1,1.030404663E1
1.070373535E0,5.205490112E0,-1.026034546E1,1.021665955E1
1.072845459E0,5.156997681E0,-1.026812744E1,1.011848450E1
1.075347900E0,5.146835327E0,-1.027590942E1,9.978424072E0
1.077819824E0,5.094757080E0,-1.022622681E1,9.810836792E0
1.080291748E0,5.033096313E0,-1.018373108E1,9.654022217E0
1.082794189E0,5.016342163E0,-1.010173035E1,9.487014771E0
1.085266113E0,4.970855713E0,-1.009994507E1,9.271545410E0
1.087768554E0,4.905609131E0,-1.008796692E1,9.062042236E0
1.090240478E0,4.811645508E0,-1.002810669E1,8.868713379E0
1.092712402E0,4.736221313E0,-1.005804443E1,8.669998169E0
1.095214843E0,4.700912476E0,-1.007240295E1,8.460510254E0
1.097686767E0,4.619506836E0,-1.007420349E1,8.221679688E0
1.100158691E0,4.505783081E0,-1.006701660E1,8.047500610E0
1.102661132E0,4.420791626E0,-1.004367065E1,7.827835083E0
1.105133056E0,4.308258057E0,-1.005384827E1,7.609359741E0
1.107635498E0,4.265762329E0,-9.965866089E0,7.421417236E0
1.110107422E0,4.175384521E0,-9.911987305E0,7.262802124E0
1.112579345E0,4.144851685E0,-9.919174194E0,7.183197021E0
1.115081787E0,4.170593262E0,-9.815032959E0,7.059890747E0
1.117553711E0,4.222671509E0,-9.725250244E0,6.986282349E0
1.120025634E0,4.274139404E0,-9.680358887E0,6.882125854E0
1.122528076E0,4.276535034E0,-9.710876465E0,6.810302734E0
1.125000000E0,4.364517212E0,-9.648025513E0,6.795333862E0
1.127502441E0,4.423187256E0,-9.680953979E0,6.731887817E0
1.129974365E0,4.481842041E0,-9.694122314E0,6.669647217E0
1.132446289E0,4.518356323E0,-9.747985840E0,6.718719482E0
1.134948730E0,4.591369629E0,-9.773727417E0,6.669647217E0
1.137420654E0,4.615921021E0,-9.831787109E0,6.621765137E0
1.139892578E0,4.599746704E0,-9.905410767E0,6.593627930E0
1.142395019E0,4.599151611E0,-9.973648071E0,6.551727295E0
1.144866943E0,4.608734131E0,-9.982620239E0,6.496658325E0
1.147338867E0,4.635070801E0,-9.996383667E0,6.404479980E0
1.149841308E0,4.645248413E0,-1.006222534E1,6.357192993E0
1.152313232E0,4.640457153E0,-1.008139038E1,6.272201538E0
1.154815673E0,4.672775269E0,-1.006582642E1,6.219528198E0
1.157287597E0,4.673980713E0,-1.013764954E1,6.176437378E0
1.159790039E0,4.626083374E0,-1.014782715E1,6.163864136E0
1.162261963E0,4.639862061E0,-1.019450378E1,6.082458496E0
1.164733886E0,4.600357056E0,-1.018254089E1,6.054931641E0
1.167205810E0,4.560241699E0,-1.015979004E1,6.000457764E0
1.169708252E0,4.502792358E0,-1.015679932E1,5.921447754E0
1.172180175E0,4.478240967E0,-1.026634216E1,5.963958740E0
1.174682617E0,4.517745972E0,-1.038305664E1,6.112396240E0
1.177154541E0,4.538101196E0,-1.042434692E1,6.117782593E0
1.179626465E0,4.535705566E0,-1.048121643E1,6.333862305E0
1.182128906E0,4.562042236E0,-1.037767029E1,6.514617920E0
1.184600830E0,4.405822754E0,-1.030345154E1,6.629547119E0
1.187103271E0,4.712280273E0,-1.074816895E1,6.767807007E0
1.189575195E0,4.786499023E0,-1.074397278E1,6.847412109E0
1.192047119E0,4.731430054E0,-1.057279968E1,6.952758789E0
1.194549560E0,4.766143799E0,-1.053030396E1,7.078445435E0
1.197021484E0,4.733825684E0,-1.055662537E1,7.173629761E0
1.199493408E0,4.679367065E0,-1.051353455E1,7.211334229E0
1.201995849E0,4.688339233E0,-1.054646301E1,7.319671631E0
1.204467773E0,4.674575806E0,-1.058535767E1,7.302902222E0
1.206970215E0,4.670974731E0,-1.062187195E1,7.353179932E0
1.209442138E0,4.663192749E0,-1.068771362E1,7.401672363E0
1.211914062E0,4.697311401E0,-1.067095947E1,7.440582275E0
1.214416504E0,4.673980713E0,-1.064402771E1,7.453140259E0
1.216888427E0,4.663803101E0,-1.065658569E1,7.466918945E0
1.219390869E0,4.620101929E0,-1.061708069E1,7.416641235E0
1.221862793E0,4.627288818E0,-1.055603027E1,7.411849976E0
1.224334716E0,4.576416016E0,-1.051293945E1,7.389694214E0
1.226837158E0,4.493209839E0,-1.045907593E1,7.376525879E0
1.229309082E0,4.497406006E0,-1.036868286E1,7.376525879E0
1.231781006E0,4.440536499E0,-1.028189087E1,7.347793579E0
1.234283447E0,4.411209106E0,-1.021965027E1,7.385513306E0
1.236755371E0,4.369308472E0,-1.014004517E1,7.430999756E0
1.239257812E0,4.331604004E0,-1.010891724E1,7.501632690E0
1.241729736E0,4.335189819E0,-1.003170776E1,7.550109863E0
1.244201660E0,4.358535767E0,-1.005145264E1,7.595001221E0
1.246704101E0,4.373504639E0,-1.000357056E1,7.632110596E0
1.249176025E0,4.397445679E0,-9.995788574E0,7.694961548E0
1.251647949E0,4.436355591E0,-1.004188538E1,7.743438721E0
1.254150390E0,4.481842041E0,-1.004188538E1,7.766784668E0
1.256622314E0,4.518951416E0,-1.003469849E1,7.804489136E0
1.259094238E0,4.552474976E0,-1.005384827E1,7.815261841E0
1.261596679E0,4.585388184E0,-1.005863953E1,7.821258545E0
1.264068603E0,4.605133057E0,-1.006822205E1,7.842803955E0
1.266571045E0,4.650024414E0,-1.008018494E1,7.907440186E0
1.269042968E0,4.711685181E0,-1.009394836E1,7.931381226E0
1.271514892E0,4.745193481E0,-1.012089539E1,7.948745728E0
1.274017334E0,4.785903931E0,-1.008677673E1,7.968490601E0
1.276489257E0,4.862518311E0,-1.008139038E1,8.023559570E0
1.278991699E0,4.837371826E0,-1.006283569E1,7.979873657E0
1.281463623E0,4.875686646E0,-9.986816406E0,7.959518433E0
1.283935547E0,4.919372559E0,-9.996994019E0,7.905654907E0
1.286437988E0,4.975646973E0,-9.960479736E0,7.953536987E0
1.288909912E0,4.963668823E0,-9.872482300E0,7.903259277E0
1.291381836E0,5.001983643E0,-9.555862427E0,7.862548828E0
1.293884277E0,5.029510498E0,-9.610321045E0,7.897872925E0
1.296356201E0,5.036102295E0,-9.652221680E0,7.972686768E0
1.298828125E0,4.997787476E0,-9.548080444E0,7.694961548E0
1.301330566E0,5.024124146E0,-9.630081177E0,7.706329346E0
1.303802490E0,5.051055908E0,-9.853927612E0,7.966705322E0
1.306304931E0,5.147430420E0,-9.934143066E0,7.960113525E0
1.308776855E0,5.194107056E0,-9.996383667E0,7.978668213E0
1.311248779E0,5.253372192E0,-1.005743408E1,7.928390503E0
1.313751220E0,5.314422607E0,-1.012208557E1,7.921218872E0
1.316223144E0,5.367095947E0,-1.017176819E1,7.888290405E0
1.318695068E0,5.377868652E0,-1.019929504E1,7.873931885E0
1.321197509E0,5.428741455E0,-1.025915527E1,7.858367920E0
1.323669433E0,5.478424072E0,-1.024778748E1,7.799713135E0
1.326141357E0,5.473037720E0,-1.024658203E1,7.664428711E0
1.328643798E0,5.507156372E0,-1.024598694E1,7.595596313E0
1.331115722E0,5.513732910E0,-1.019151306E1,7.561477661E0
1.333618164E0,5.514938354E0,-1.015022278E1,7.478286743E0
1.336090088E0,5.547256470E0,-1.006283569E1,7.493850708E0
1.338562011E0,5.568801880E0,-1.003230286E1,7.464523315E0
1.341064453E0,5.628067017E0,-1.000776672E1,7.487258911E0
1.343536377E0,5.661575317E0,-9.980224609E0,7.569869995E0
1.346038818E0,5.695098877E0,-9.971252441E0,7.675201416E0
1.348510742E0,5.762130737E0,-1.001554871E1,7.681793213E0
1.350982666E0,5.819000244E0,-1.005564880E1,7.751815796E0
1.353485107E0,5.821990967E0,-1.012268066E1,7.812881470E0
1.355957031E0,5.865081787E0,-1.017955017E1,7.911041260E0
1.358428955E0,5.855514526E0,-1.027590942E1,7.927795410E0
1.360931396E0,5.863296509E0,-1.036868286E1,8.022964478E0
1.363403320E0,5.922546387E0,-1.039981079E1,8.057083130E0
1.365875244E0,5.925537109E0,-1.041477966E1,8.101974487E0
1.368377685E0,6.014129639E0,-1.051293945E1,8.170211792E0
1.370849609E0,6.012924194E0,-1.034115601E1,8.176788330E0
1.373352050E0,5.893814087E0,-1.030345154E1,8.225280762E0
1.375823974E0,6.026702881E0,-1.048480225E1,8.347976685E0
1.378295898E0,6.018920898E0,-1.031242371E1,8.360549927E0
1.380798340E0,6.069793701E0,-1.042495728E1,8.333618164E0
1.383270263E0,6.150604248E0,-1.062007141E1,8.440155029E0
1.385772705E0,6.186508179E0,-1.065779114E1,8.444946289E0
1.388244629E0,6.212844849E0,-1.063024902E1,8.476669312E0
1.390716552E0,6.191299438E0,-1.056860352E1,8.513183594E0
1.393218994E0,6.121871948E0,-1.049139404E1,8.554473877E0
1.395690918E0,6.113479614E0,-1.043153381E1,8.562850952E0
1.398162841E0,6.155380249E0,-1.037467957E1,8.570632935E0
1.400665283E0,6.170944214E0,-1.029446411E1,8.568847656E0
1.403137207E0,6.111694336E0,-1.020887756E1,8.557464600E0
1.405639648E0,6.152984619E0,-1.013525391E1,8.622116089E0
1.408111572E0,6.179931641E0,-1.007778931E1,8.599960327E0
1.410583496E0,6.088348389E0,-1.002931213E1,8.599960327E0
1.413085937E0,6.100311279E0,-1.002931213E1,8.623916626E0
1.415557861E0,6.054229736E0,-1.001733398E1,8.616729736E0
1.418029785E0,6.030883789E0,-9.991607666E0,8.573028564E0
1.420532226E0,6.041656494E0,-9.977233887E0,8.563461304E0
1.423004150E0,5.991973877E0,-9.941925049E0,8.552078247E0
1.425506591E0,5.977615356E0,-9.923965454E0,8.567642212E0
1.427978515E0,5.949478149E0,-9.924560547E0,8.506591797E0
1.430450439E0,5.918365479E0,-9.939529419E0,8.515579224E0
1.432952881E0,5.945297241E0,-9.849151611E0,8.470687866E0
1.435424804E0,5.920761108E0,-9.829986572E0,8.380294800E0
1.437896728E0,5.873474121E0,-9.816223145E0,8.400054932E0
1.440399170E0,5.901596069E0,-9.746795654E0,8.408432007E0
1.442871093E0,5.887832642E0,-9.703094482E0,8.353958130E0
1.445373535E0,5.859695435E0,-9.725250244E0,8.296508789E0
1.447845459E0,5.843536377E0,-9.705490112E0,8.336013794E0
1.450317382E0,5.826187134E0,-9.656417847E0,8.328826904E0
1.452819824E0,5.803436279E0,-9.627685547E0,8.303680420E0
1.455291748E0,5.799255371E0,-9.604339600E0,8.319839478E0
1.457763672E0,5.819595337E0,-9.530715942E0,8.414413452E0
1.460266113E0,5.819000244E0,-9.435546875E0,8.447937012E0
1.462738037E0,5.799255371E0,-9.346359253E0,8.498214722E0
1.465240478E0,5.824981689E0,-9.217071533E0,8.545501709E0
1.467712402E0,5.822586060E0,-9.114730835E0,8.552078247E0
1.470184326E0,5.813613892E0,-9.006988525E0,8.583206177E0
1.472686767E0,5.809417725E0,-8.940551758E0,8.571243286E0
1.475158691E0,5.839355469E0,-8.784332275E0,8.663421631E0
1.477630615E0,5.815414429E0,-8.619720459E0,8.678375244E0
1.480133056E0,5.787872314E0,-8.465301514E0,8.698135376E0
1.482604980E0,5.820800781E0,-8.330627441E0,8.731643677E0
1.485107422E0,5.804641724E0,-8.177993774E0,8.726257324E0
1.487579345E0,5.794464111E0,-7.954132080E0,8.756195068E0
1.490051269E0,5.787277222E0,-7.767990112E0,8.730453491E0
1.492553711E0,5.790863037E0,-7.634506226E0,8.753204346E0
1.495025634E0,5.786682129E0,-7.445968628E0,8.819030762E0
1.497497558E0,5.737594604E0,-7.268798828E0,8.793304443E0
1.500000000E0,5.731613159E0,-7.149688721E0,8.742416382E0
1.502471923E0,5.809417725E0,-7.049728394E0,8.756790161E0
1.504974365E0,5.726226807E0,-6.958740234E0,8.777740479E0
1.507446289E0,5.738189697E0,-6.900680542E0,8.805267334E0
1.509918213E0,5.774108887E0,-6.834838867E0,8.829818726E0
1.512420654E0,5.789077759E0,-6.807907104E0,8.777740479E0
1.514892578E0,5.800445557E0,-6.702560425E0,8.759780884E0
1.517364502E0,5.800445557E0,-6.644500732E0,8.706512451E0
1.519866943E0,5.840545654E0,-6.637924194E0,8.689147949E0
1.522338867E0,5.833969116E0,-6.602005005E0,8.705917358E0
1.524810791E0,5.915359497E0,-6.594223022E0,8.611343384E0
1.527313232E0,5.893218994E0,-6.596023560E0,8.571838379E0
1.529785156E0,5.961456299E0,-6.628952026E0,8.553878784E0
1.532287597E0,6.012329102E0,-6.651687622E0,8.498214722E0
1.534759521E0,6.042266846E0,-6.665451050E0,8.429977417E0
1.537231445E0,6.072784424E0,-6.695983887E0,8.386886597E0
1.539733886E0,6.074584961E0,-6.701965332E0,8.308471680E0
1.542205810E0,6.082962036E0,-6.766616821E0,8.200134277E0
1.544708252E0,6.112289429E0,-6.856399536E0,8.152847290E0
1.547180175E0,6.145202637E0,-6.918045044E0,8.104370117E0
1.549652099E0,6.114089966E0,-7.008422852E0,8.043319702E0
1.552154541E0,6.067993164E0,-7.095214844E0,7.914627075E0
1.554626465E0,6.058425903E0,-7.227493286E0,7.849990845E0
1.557128906E0,6.026702881E0,-7.302307129E0,7.798507690E0
1.559600830E0,6.039871216E0,-7.453750610E0,7.715911865E0
1.562072754E0,5.977615356E0,-7.574050903E0,7.671615601E0
1.564575195E0,5.952484131E0,-7.654861450E0,7.584823608E0
1.567047119E0,5.961456299E0,-7.790725708E0,7.579437256E0
1.569519043E0,5.911773682E0,-7.892486572E0,7.500427246E0
1.572021484E0,5.929138184E0,-8.031951904E0,7.416641235E0
1.574493408E0,5.936309814E0,-8.104370117E0,7.387908936E0
1.576965332E0,5.893814087E0,-8.190567017E0,7.367553711E0
1.579467773E0,5.837554932E0,-8.286331177E0,7.326248169E0
1.581939697E0,5.835754395E0,-8.457519531E0,7.313690186E0
1.584442138E0,5.792663574E0,-8.584411621E0,7.336425781E0
1.586914062E0,5.763931274E0,-8.732254028E0,7.340011597E0
1.589385986E0,5.723236084E0,-8.854949951E0,7.369949341E0
1.591888427E0,5.728027344E0,-9.021942139E0,7.348403931E0
1.594360351E0,5.640029907E0,-9.163208008E0,7.362167358E0
1.596832275E0,5.595733643E0,-9.270950317E0,7.365158081E0
1.599334716E0,5.565216064E0,-9.419387817E0,7.440582275E0
1.601806640E0,5.519119263E0,-9.571411133E0,7.468704224E0
1.604309082E0,5.469451904E0,-9.662994385E0,7.542922974E0
1.606781006E0,5.443710327E0,-9.799468994E0,7.518981934E0
1.609252929E0,5.410186768E0,-9.933547974E0,7.591415405E0
1.611755371E0,5.355728149E0,-1.007958984E1,7.618942261E0
1.614227295E0,5.306640625E0,-1.021127319E1,7.621932983E0
1.616699218E0,5.277908325E0,-1.035491943E1,7.678802490E0
1.619201660E0,5.230026245E0,-1.047044373E1,7.677597046E0
1.621673584E0,5.210876465E0,-1.059913635E1,7.702148438E0
1.624176025E0,5.148620605E0,-1.072422791E1,7.693756104E0
1.626647949E0,5.104324341E0,-1.087864685E1,7.706924438E0
1.629119873E0,5.072601318E0,-1.096304321E1,7.741043091E0
1.631622314E0,5.009155273E0,-1.105403137E1,7.745239258E0
1.634094238E0,4.891845703E0,-1.095765686E1,7.758407593E0
1.636566162E0,4.897827148E0,-1.122221375E1,7.757202148E0
1.639068603E0,4.874481201E0,-1.134432983E1,7.826644897E0
1.641540527E0,4.878082275E0,-1.158074951E1,7.826034546E0
1.644042968E0,4.831985474E0,-1.169746399E1,7.873931885E0
1.646514892E0,4.751190186E0,-1.174536133E1,7.800903320E0
1.648986816E0,4.698516846E0,-1.183094788E1,7.824249268E0
1.651489257E0,4.628479004E0,-1.189140320E1,7.876327515E0
1.653961181E0,4.570419312E0,-1.200152588E1,7.925994873E0
1.656433105E0,4.577606201E0,-1.209310913E1,7.925994873E0
1.658935547E0,4.477645874E0,-1.214338684E1,7.893081665E0
1.661407470E0,4.440536499E0,-1.217810059E1,7.915817261E0
1.663909912E0,4.432754517E0,-1.223915100E1,7.917617798E0
1.666381836E0,4.331008911E0,-1.223257446E1,7.944549561E0
1.668853759E0,4.287307739E0,-1.225950623E1,7.968490601E0
1.671356201E0,4.211898804E0,-1.229782104E1,7.979278564E0
1.673828125E0,4.148452759E0,-1.236964417E1,8.014587402E0
1.676330566E0,4.089187622E0,-1.239717102E1,7.973876953E0
1.678802490E0,4.069442749E0,-1.244505310E1,7.988250732E0
1.681274414E0,3.973663330E0,-1.252467346E1,7.941558838E0
1.683776855E0,3.878494263E0,-1.252346802E1,7.890090942E0
1.686248779E0,3.806076050E0,-1.250849915E1,7.860763550E0
1.688720703E0,3.648056030E0,-1.251867676E1,7.846389771E0
1.691223144E0,3.520568848E0,-1.249833679E1,7.829040527E0
1.693695068E0,3.457122803E0,-1.244625854E1,7.737457275E0
1.696166992E0,3.355361938E0,-1.240794373E1,7.650665283E0
1.698669433E0,3.247634888E0,-1.235227966E1,7.571060181E0
1.701141357E0,3.088409424E0,-1.231277466E1,7.521972656E0
1.703613281E0,2.973495483E0,-1.220384216E1,7.410644531E0
1.706115722E0,2.884307861E0,-1.208233643E1,7.346008301E0
1.708587646E0,2.765792847E0,-1.202128601E1,7.249633789E0
1.711090088E0,2.647277832E0,-1.194348145E1,7.164642334E0
1.713562011E0,2.582046509E0,-1.186326599E1,7.083236694E0
1.716033935E0,2.489257812E0,-1.183692932E1,6.934204102E0
1.718536377E0,2.346206665E0,-1.175851440E1,6.890502930E0
1.721008300E0,2.230087280E0,-1.172021484E1,6.784561157E0
1.723510742E0,2.150482178E0,-1.164718628E1,6.669647217E0
1.725982666E0,2.081649780E0,-1.157536316E1,6.593032837E0
1.728454590E0,1.954162598E0,-1.159272766E1,6.499649048E0
1.730957031E0,1.886520386E0,-1.151011658E1,6.402694702E0
1.733428955E0,1.782379150E0,-1.138742065E1,6.315902710E0
1.735900879E0,1.700378418E0,-1.131977844E1,6.232696533E0
1.738403320E0,1.610595703E0,-1.125155640E1,6.169845581E0
1.740875244E0,1.527389526E0,-1.115458679E1,6.062713623E0
1.743377685E0,1.474121094E0,-1.114201355E1,5.953781128E0
1.745849609E0,1.377761841E0,-1.104565430E1,5.838256836E0
1.748321533E0,1.284973145E0,-1.098579407E1,5.725128174E0
1.750823974E0,1.202972412E0,-1.090858459E1,5.629364014E0
1.753295898E0,1.184417725E0,-1.086488342E1,5.546157837E0
1.755767822E0,1.073699951E0,-1.079187012E1,5.422256470E0
1.758270263E0,9.898986816E-1,-1.073320007E1,5.334869385E0
1.760742187E0,9.246520996E-1,-1.063864136E1,5.291778564E0
1.763244629E0,8.600158691E-1,-1.061708069E1,5.233718872E0
1.765716552E0,7.720184326E-1,-1.055363464E1,5.085876465E0
1.768188476E0,7.319183350E-1,-1.048240662E1,5.048171997E0
1.770690918E0,6.774444580E-1,-1.043153381E1,4.991912842E0
1.773162841E0,5.900573730E-1,-1.038545227E1,4.934448242E0
1.775634765E0,5.056610107E-1,-1.031721497E1,4.848251343E0
1.778137207E0,4.140930176E-1,-1.036929321E1,4.747100830E0
1.780609131E0,3.943328857E-1,-1.016038513E1,4.690231323E0
1.783111572E0,2.429046631E-1,-1.009574890E1,4.655517578E0
1.785583496E0,1.722717285E-1,-1.007539368E1,4.507675171E0
1.788055420E0,1.279754639E-1,-9.947311401E0,4.480743408E0
1.790557861E0,4.179382324E-2,-9.810836792E0,4.457992554E0
1.793029785E0,-7.432556152E-2,-9.785095215E0,4.373001099E0
1.795501709E0,-1.635131836E-1,-9.679153442E0,4.288604736E0
1.798004150E0,-2.317504883E-1,-9.540298462E0,4.223373413E0
1.800476074E0,-2.736511230E-1,-9.468475342E0,4.169494629E0
1.802978515E0,-3.418731689E-1,-9.367309570E0,4.090484619E0
1.805450439E0,-4.238739014E-1,-9.330795288E0,4.024047852E0
1.807922363E0,-4.777526855E-1,-9.293685913E0,3.994720459E0
1.810424804E0,-4.933166504E-1,-9.137466431E0,3.892364502E0
1.812896728E0,-5.190429688E-1,-9.108734131E0,3.801391602E0
1.815368652E0,-6.052398682E-1,-9.033325195E0,3.759490967E0
1.817871093E0,-5.842895508E-1,-8.995010376E0,3.722976685E0
1.820343017E0,-6.495361328E-1,-8.944137573E0,3.588302612E0
1.822845459E0,-6.932220459E-1,-8.869918823E0,3.586502075E0
1.825317382E0,-6.872406006E-1,-8.755599976E0,3.509292603E0
1.827789306E0,-7.171630859E-1,-8.650848389E0,3.377014160E0
1.830291748E0,-7.596740723E-1,-8.585601807E0,3.363250732E0
1.832763672E0,-7.554779053E-1,-8.571838379E0,3.390777588E0
1.835235595E0,-7.261505127E-1,-8.556274414E0,3.459014893E0
1.837738037E0,-7.399139404E-1,-8.547897339E0,3.417114258E0
1.840209961E0,-7.237548828E-1,-8.535919189E0,3.399169922E0
1.842712402E0,-6.974182129E-1,-8.541915894E0,3.417114258E0
1.845184326E0,-7.177734375E-1,-8.505401611E0,3.366836548E0
1.847656250E0,-7.327270508E-1,-8.401855469E0,3.333923340E0
1.850158691E0,-7.147827148E-1,-8.520370483E0,3.401550293E0
1.852630615E0,-7.297363281E-1,-8.538925171E0,3.421905518E0
1.855102539E0,-6.974182129E-1,-8.534133911E0,3.356063843E0
1.857604980E0,-6.507263184E-1,-8.546707153E0,3.342895508E0
1.860076904E0,-6.339721680E-1,-8.496429443E0,3.407546997E0
1.862579345E0,-6.423492432E-1,-8.479660034E0,3.356658936E0
1.865051269E0,-5.801086426E-1,-8.435974121E0,3.441665649E0
1.867553711E0,-5.417938232E-1,-8.425796509E0,3.375213623E0
1.870025634E0,-5.076751709E-1,-8.357559204E0,3.367446899E0
1.872497558E0,-5.346069336E-1,-8.300689697E0,3.399765015E0
1.874969482E0,-5.196533203E-1,-8.232467651E0,3.403945923E0
1.877471923E0,-5.052795410E-1,-8.239044189E0,3.397964478E0
1.879943847E0,-4.603881836E-1,-8.206130981E0,3.407546997E0
1.882446289E0,-4.472198486E-1,-8.106765747E0,3.422500610E0
1.884918213E0,-3.909606934E-1,-8.069061279E0,3.405151367E0
1.887390136E0,-3.263244629E-1,-8.058883667E0,3.399765015E0
1.889892578E0,-3.394927979E-1,-8.054687500E0,3.405746460E0
1.892364502E0,-3.029785156E-1,-8.023574829E0,3.479370117E0
1.894836425E0,-2.808227539E-1,-8.012786865E0,3.497329712E0
1.897338867E0,-2.981872559E-1,-8.018173218E0,3.497924805E0
1.899810791E0,-2.407226562E-1,-8.012191772E0,3.522460938E0
1.902313232E0,-2.580871582E-1,-8.069656372E0,3.581115723E0
1.904785156E0,-2.718505859E-1,-8.062469482E0,3.577529907E0
1.907257080E0,-2.862091064E-1,-8.027755737E0,3.569747925E0
1.909759521E0,-2.904052734E-1,-7.982269287E0,3.575134277E0
1.912231445E0,-2.832183838E-1,-7.945159912E0,3.577529907E0
1.914703369E0,-2.580871582E-1,-7.878723145E0,3.557174683E0
1.917205810E0,-2.652587891E-1,-7.851776123E0,3.539825439E0
1.919677734E0,-2.646636963E-1,-7.845794678E0,3.511093140E0
1.922180175E0,-2.880096436E-1,-7.796112061E0,3.485351562E0
1.924652099E0,-3.023681641E-1,-7.732666016E0,3.515884399E0
1.927154541E0,-2.646636963E-1,-7.812286377E0,3.496124268E0
1.929626465E0,-3.083648682E-1,-7.784149170E0,3.505111694E0
1.932098388E0,-3.251190186E-1,-7.799713135E0,3.469192505E0
1.934570312E0,-3.131561279E-1,-7.783554077E0,3.434478760E0
1.937072754E0,-3.317108154E-1,-7.802108765E0,3.431488037E0
1.939544677E0,-3.370971680E-1,-7.811676025E0,3.417114258E0
1.942047119E0,-3.305053711E-1,-7.832626343E0,3.414123535E0
1.944519043E0,-3.574371338E-1,-7.855377197E0,3.389587402E0
1.946990966E0,-3.610382080E-1,-7.922409058E0,3.424301147E0
1.949493408E0,-3.640289307E-1,-7.912231445E0,3.402755737E0
1.951965332E0,-3.867645264E-1,-7.951141357E0,3.374618530E0
1.954437256E0,-4.220886230E-1,-8.000823975E0,3.414123535E0
1.956939697E0,-4.472198486E-1,-8.048110962E0,3.412933350E0
1.959411621E0,-4.274749756E-1,-8.129516602E0,3.376419067E0
1.961914062E0,-4.963073730E-1,-8.192352295E0,3.474578857E0
1.964385986E0,-5.316162109E-1,-8.218093872E0,3.443450928E0
1.966857910E0,-5.298309326E-1,-8.248016357E0,3.427886963E0
1.969360351E0,-5.477752686E-1,-8.288726807E0,3.490142822E0
1.971832275E0,-5.735168457E-1,-8.254608154E0,3.483566284E0
1.974304199E0,-5.926666260E-1,-8.191162109E0,3.503311157E0
1.976806640E0,-5.825042725E-1,-8.166015625E0,3.354278564E0
1.979278564E0,-5.920715332E-1,-8.066070557E0,3.414123535E0
1.981781006E0,-6.076354980E-1,-8.005615234E0,3.261489868E0
1.984252929E0,-5.609436035E-1,-7.912841797E0,3.230377197E0
1.986755371E0,-5.471801758E-1,-7.901458740E0,3.264495850E0
1.989227295E0,-5.645446777E-1,-7.941558838E0,3.165725708E0
1.991699218E0,-5.441894531E-1,-7.890686035E0,3.167526245E0
1.994171142E0,-5.166625977E-1,-7.777557373E0,3.205825806E0
1.996673584E0,-5.483856201E-1,-7.808685303E0,3.387191772E0
1.999145507E0,-5.429992676E-1,-7.800308228E0,3.217208862E0
2.001647949E0,-4.699707031E-1,-7.744644165E0,3.366241455E0
2.004119873E0,-5.184478760E-1,-7.738052368E0,3.557785034E0
2.006591797E0,-5.178527832E-1,-7.753616333E0,3.593688965E0
2.009094238E0,-4.939117432E-1,-7.753616333E0,3.746917725E0
2.011566162E0,-5.136566162E-1,-7.734466553E0,3.898361206E0
2.014038086E0,-6.351623535E-1,-7.375930786E0,4.112030029E0
2.016540527E0,-8.069458008E-1,-7.480682373E0,3.924087524E0
2.019012451E0,-5.340118408E-1,-7.785339355E0,3.859451294E0
2.021514892E0,-6.782684326E-1,-7.827239990E0,3.916915894E0
2.023986816E0,-5.974578857E-1,-7.906845093E0,4.014480591E0
2.026458740E0,-5.447845459E-1,-8.025360107E0,4.176086426E0
2.028961181E0,-4.573974609E-1,-8.082824707E0,4.109039307E0
2.031433105E0,-4.400482178E-1,-8.113952637E0,4.070144653E0
2.033905029E0,-3.388824463E-1,-8.144470215E0,4.111434937E0
2.036407470E0,-2.550964355E-1,-8.267181396E0,4.046203613E0
2.038879394E0,-1.916503906E-1,-8.265975952E0,4.089294434E0
2.041381836E0,-1.964263916E-1,-8.289321899E0,4.077926636E0
2.043853759E0,-1.317901611E-1,-8.378509521E0,4.061752319E0
2.046325683E0,-8.091735840E-2,-8.438369751E0,3.989929199E0
2.048828125E0,-7.432556152E-2,-8.547302246E0,3.886383057E0
2.051300048E0,-1.686096191E-2,-8.572433472E0,3.878601074E0
2.053771972E0,-4.978942871E-2,-8.608352661E0,3.688858032E0
2.056274414E0,4.898071289E-2,-8.707717896E0,3.517074585E0
2.058746338E0,9.805297852E-2,-8.715484619E0,3.405746460E0
2.061248779E0,1.788635254E-1,-8.664016724E0,3.467391968E0
2.063720703E0,2.584686279E-1,-8.659225464E0,3.408737183E0
2.066192627E0,3.620147705E-1,-8.661621094E0,3.308776855E0
2.068695068E0,4.015197754E-1,-8.634094238E0,3.438064575E0
2.071166992E0,4.404296875E-1,-8.662826538E0,3.380004883E0
2.073638916E0,3.596191406E-1,-8.699325562E0,3.338714600E0
2.076141357E0,4.003295898E-1,-8.726867676E0,3.377609253E0
2.078613281E0,4.446105957E-1,-8.770553589E0,3.353668213E0
2.081115722E0,4.865112305E-1,-8.714889526E0,3.457824707E0
2.083587646E0,5.864715576E-1,-8.687362671E0,3.611648560E0
2.086059570E0,6.535034180E-1,-8.786712646E0,3.787017822E0
2.088562011E0,5.864715576E-1,-8.936355591E0,3.910919189E0
2.091033935E0,4.936981201E-1,-9.092575073E0,3.936065674E0
2.093505859E0,4.170837402E-1,-9.219467163E0,4.091690063E0
2.096008300E0,4.128875732E-1,-9.376296997E0,4.116821289E0
2.098480224E0,3.799743652E-1,-9.513961792E0,4.258682251E0
2.100982666E0,3.332824707E-1,-9.601943970E0,4.264663696E0
2.103454590E0,2.039947510E-1,-9.654022217E0,4.296981812E0
2.105926513E0,1.788635254E-1,-9.711486816E0,4.346664429E0
2.108428955E0,1.411437988E-1,-9.753982544E0,4.322723389E0
2.110900879E0,9.985351562E-2,-9.733032227E0,4.399932861E0
2.113372802E0,1.195983887E-1,-9.711486816E0,4.356246948E0
2.115875244E0,1.483306885E-1,-9.649230957E0,4.400543213E0
2.118347168E0,1.285858154E-1,-9.576812744E0,4.398147583E0
2.120849609E0,1.525268555E-1,-9.519943237E0,4.432266235E0
2.123321533E0,1.537170410E-1,-9.440933228E0,4.434051514E0
2.125793457E0,2.081909180E-1,-9.397842407E0,4.475357056E0
2.128295898E0,2.057952881E-1,-9.338577271E0,4.602249146E0
2.130767822E0,1.674804688E-1,-9.279922485E0,4.636962891E0
2.133239746E0,2.471008301E-1,-9.270950317E0,4.741119385E0
2.135742187E0,2.530822754E-1,-9.229644775E0,4.792587280E0
2.138214111E0,3.057556152E-1,-9.182952881E0,4.810546875E0
2.140716552E0,3.183288574E-1,-9.148239136E0,4.838684082E0
2.143188476E0,3.273010254E-1,-9.087783813E0,4.855438232E0
2.145660400E0,3.045501709E-1,-8.987838745E0,4.840469360E0
2.148162841E0,3.296966553E-1,-8.889068604E0,4.774627686E0
2.150634765E0,3.620147705E-1,-8.742431641E0,4.808151245E0
2.153106689E0,3.656005859E-1,-8.619125366E0,4.857238770E0
2.155609131E0,4.093017578E-1,-8.488647461E0,4.787796021E0
2.158081054E0,5.200347900E-1,-8.357559204E0,4.742904663E0
2.160583496E0,5.451660156E-1,-8.229461670E0,4.732131958E0
2.163055420E0,5.822753906E-1,-8.136688232E0,4.759063721E0
2.165527343E0,6.445312500E-1,-8.011001587E0,4.749496460E0
2.168029785E0,6.804504395E-1,-7.923004150E0,4.729141235E0
2.170501709E0,7.456817627E-1,-7.894287109E0,4.751281738E0
2.172973632E0,8.330688477E-1,-7.802108765E0,4.699813843E0
2.175476074E0,9.491882324E-1,-7.692565918E0,4.745300293E0
2.177947998E0,1.000671387E0,-7.618942261E0,4.806350708E0
2.180450439E0,1.056335449E0,-7.602783203E0,4.783004761E0
2.182922363E0,1.155090332E0,-7.498046875E0,4.824310303E0
2.185394287E0,1.238891602E0,-7.496841431E0,4.863220215E0
2.187896728E0,1.335266113E0,-7.474090576E0,4.830291748E0
2.190368652E0,1.390319824E0,-7.435791016E0,4.884765625E0
2.192871093E0,1.518417358E0,-7.412445068E0,4.972152710E0
2.195343017E0,1.568099976E0,-7.445373535E0,5.022430420E0
2.197814941E0,1.655487061E0,-7.460327148E0,5.117599487E0
2.200317382E0,1.712341309E0,-7.480087280E0,5.143341064E0
2.202789306E0,1.815887451E0,-7.444763184E0,5.208587646E0
2.205261230E0,1.915847778E0,-7.456146240E0,5.297164917E0
2.207763672E0,1.972122192E0,-7.468109131E0,5.266647339E0
2.210235595E0,2.058303833E0,-7.557891846E0,5.284591675E0
2.212707519E0,2.183410645E0,-7.609970093E0,5.394729614E0
2.215209961E0,2.223510742E0,-7.638702393E0,5.364807129E0
2.217681884E0,2.274383545E0,-7.800308228E0,5.397720337E0
2.220184326E0,2.323471069E0,-7.876922607E0,5.452789307E0
2.222656250E0,2.419830322E0,-7.910446167E0,5.495880127E0
2.225128173E0,2.455749512E0,-8.005615234E0,5.489898682E0
2.227630615E0,2.506027222E0,-8.116943359E0,5.502471924E0
2.230102539E0,2.535354614E0,-8.196548462E0,5.549163818E0
2.232574463E0,2.587432861E0,-8.272567749E0,5.521621704E0
2.235076904E0,2.615554810E0,-8.446746826E0,5.521621704E0
2.237579345E0,2.692169189E0,-8.541320801E0,5.495285034E0
2.240051269E0,2.661041260E0,-8.619125366E0,5.439025879E0
2.242523193E0,2.628128052E0,-8.704116821E0,5.310333252E0
2.244995117E0,2.628723145E0,-8.866333008E0,5.309143066E0
2.247497558E0,2.687988281E0,-8.942337036E0,5.252868652E0
2.249969482E0,2.669433594E0,-9.137466431E0,5.127777100E0
2.252441406E0,2.685592651E0,-9.230850220E0,5.149917603E0
2.254943847E0,2.732269287E0,-9.287704468E0,5.054153442E0
2.257415771E0,2.674819946E0,-9.388854980E0,5.082290649E0
2.259918213E0,2.610168457E0,-9.524734497E0,5.079299927E0
2.262390136E0,2.534149170E0,-9.604934692E0,5.045181274E0
2.264862060E0,2.496444702E0,-9.724655151E0,4.933853149E0
2.267364502E0,2.276779175E0,-9.782699585E0,4.984725952E0
2.269836425E0,2.267807007E0,-9.813827515E0,4.799774170E0
2.272308349E0,2.017013550E0,-9.496002197E0,4.628585815E0
2.274810791E0,2.683197021E0,-9.924560547E0,4.701614380E0
2.277282715E0,2.451553345E0,-1.017535400E1,4.770446777E0
2.279785156E0,2.796920776E0,-1.033038330E1,4.352050781E0
2.282257080E0,2.643096924E0,-1.020648193E1,4.510665894E0
2.284729004E0,2.443771362E0,-1.016816711E1,4.232940674E0
2.287231445E0,2.531768799E0,-1.048779297E1,4.135986328E0
2.289703369E0,2.332443237E0,-1.046385193E1,4.557952881E0
2.292205810E0,2.401275635E0,-1.047822571E1,4.638763428E0
2.294677734E0,2.304306030E0,-1.063684082E1,4.646545410E0
2.297149658E0,2.400680542E0,-1.052072144E1,4.671676636E0
2.299652099E0,2.222305298E0,-1.049797058E1,4.469970703E0
2.302124023E0,2.156463623E0,-1.070268250E1,4.677062988E0
2.304626465E0,2.135513306E0,-1.092054749E1,4.735122681E0
2.307098388E0,2.201965332E0,-1.117672729E1,4.647735596E0
2.309570312E0,2.334838867E0,-1.107318115E1,4.650726318E0
2.312072754E0,2.273193359E0,-1.113722229E1,4.412506104E0
2.314544677E0,2.270797729E0,-1.093910217E1,4.450210571E0
2.317016601E0,2.253433228E0,-1.089840698E1,4.502883911E0
2.319519043E0,2.170837402E0,-1.100973511E1,4.355041504E0
2.321990966E0,2.017013550E0,-1.127728271E1,4.699813843E0
2.324462890E0,2.150482178E0,-1.145326233E1,4.760864258E0
2.326965332E0,2.220520020E0,-1.139939880E1,4.922470093E0
2.329437256E0,2.208541870E0,-1.131379700E1,4.876388550E0
2.331939697E0,2.264205933E0,-1.093971252E1,4.942230225E0
2.334411621E0,2.081649780E0,-1.071224976E1,4.902130127E0
2.336883545E0,1.225128174E0,-1.102709961E1,4.434661865E0
2.339385986E0,1.064117432E0,-1.138562012E1,6.214141846E0
2.341857910E0,9.701385498E-1,-1.066436768E1,5.224746704E0
2.344329834E0,2.269592285E0,-9.481033325E0,5.696395874E0
2.346832275E0,1.998458862E0,-9.381683350E0,5.478530884E0
2.349304199E0,2.690979004E0,-1.070567322E1,5.012252808E0
2.351806640E0,2.361770630E0,-1.135031128E1,5.175064087E0
2.354278564E0,2.309692383E0,-1.178665161E1,4.676467896E0
2.356750488E0,2.183410645E0,-1.169148254E1,4.526824951E0
2.359252929E0,2.369552612E0,-1.144847107E1,4.343078613E0
2.361724853E0,2.541336060E0,-1.112765503E1,4.707000732E0
2.364196777E0,2.424026489E0,-1.088583374E1,5.215164185E0
2.366699218E0,2.216918945E0,-1.081460571E1,5.486312866E0
2.369171142E0,2.194778442E0,-1.062426758E1,5.640136719E0
2.371673584E0,2.418640137E0,-1.038963318E1,5.562316895E0
2.374145507E0,2.642486572E0,-1.019210815E1,5.579681396E0
2.376617431E0,2.816665649E0,-9.998184204E0,5.598236084E0
2.379119873E0,2.898666382E0,-9.901214600E0,5.650314331E0
2.381591797E0,3.065063477E0,-9.892837524E0,5.739501953E0
2.384094238E0,3.219497681E0,-9.826400757E0,5.828079224E0
2.386566162E0,3.225479126E0,-9.728240967E0,5.961563110E0
2.389038086E0,3.244628906E0,-9.680358887E0,6.030990601E0
2.391540527E0,3.325439453E0,-9.512756348E0,6.141723633E0
2.394012451E0,3.403854370E0,-9.441528320E0,6.117187500E0
2.396484375E0,3.440353394E0,-9.323623657E0,6.160873413E0
2.398986816E0,3.511581421E0,-9.234436035E0,6.230300903E0
2.401458740E0,3.581024170E0,-9.187744141E0,6.154296875E0
2.403930664E0,3.664215088E0,-9.087188721E0,6.104019165E0
2.406433105E0,3.710906982E0,-8.956710815E0,6.077072144E0
2.408905029E0,3.867126465E0,-8.952514648E0,6.047744751E0
2.411376953E0,3.956314087E0,-8.881881714E0,6.012435913E0
2.413879394E0,4.016159058E0,-8.766967773E0,5.928634644E0
2.416351318E0,4.168197632E0,-8.744216919E0,5.902893066E0
2.418853759E0,4.219070435E0,-8.705322266E0,5.862792969E0
2.421325683E0,4.276535034E0,-8.639480591E0,5.819702148E0
2.423797607E0,4.268753052E0,-8.587402344E0,5.838256836E0
2.426300048E0,4.266357422E0,-8.540115356E0,5.838851929E0
2.428771972E0,4.371109009E0,-8.546707153E0,5.761642456E0
2.431243896E0,4.432159424E0,-8.539520264E0,5.753265381E0
2.433746338E0,4.400436401E0,-8.531143188E0,5.693405151E0
2.436218261E0,4.417800903E0,-8.498214722E0,5.690414429E0
2.438720703E0,4.389068604E0,-8.446746826E0,5.717346191E0
2.441192627E0,4.405822754E0,-8.423400879E0,5.707168579E0
2.443664550E0,4.422576904E0,-8.399459839E0,5.649719238E0
2.446166992E0,4.390258789E0,-8.337799072E0,5.551544189E0
2.448638916E0,4.399230957E0,-8.313858032E0,5.573699951E0
2.451110840E0,4.372909546E0,-8.303695679E0,5.485702515E0
2.453613281E0,4.347763062E0,-8.301300049E0,5.449798584E0
2.456085205E0,4.286712646E0,-8.300094604E0,5.423461914E0
2.458587646E0,4.314849854E0,-8.323440552E0,5.371978760E0
2.461059570E0,4.334594727E0,-8.356353760E0,5.406707764E0
2.463531494E0,4.316635132E0,-8.334213257E0,5.419876099E0
2.466033935E0,4.307662964E0,-8.340194702E0,5.409698486E0
2.468505859E0,4.266952515E0,-8.359359741E0,5.492294312E0
2.470977783E0,4.283721924E0,-8.396469116E0,5.501876831E0
2.473480224E0,4.289703369E0,-8.431182861E0,5.570098877E0
2.475952148E0,4.274139404E0,-8.517364502E0,5.632949829E0
2.478454590E0,4.254394531E0,-8.519165039E0,5.655700684E0
2.480926513E0,4.217285156E0,-8.520965576E0,5.694610596E0
2.483398437E0,4.144851685E0,-8.561065674E0,5.694610596E0
2.485900879E0,4.170593262E0,-8.590988159E0,5.655105591E0
2.488372802E0,4.166397095E0,-8.686767578E0,5.708969116E0
2.490875244E0,4.156219482E0,-8.607757568E0,5.717941284E0
2.493347168E0,4.114334106E0,-8.625701904E0,5.672454834E0
2.495819091E0,4.056274414E0,-8.618530273E0,5.701782227E0
2.498321533E0,4.017364502E0,-8.667007446E0,5.687423706E0
2.500793457E0,3.989837646E0,-8.709503174E0,5.673049927E0
2.503265381E0,3.976669312E0,-8.696929932E0,5.695800781E0
2.505767822E0,3.934158325E0,-8.739440918E0,5.684432983E0
2.508239746E0,3.870712280E0,-8.794494629E0,5.674255371E0
2.510711670E0,3.910217285E0,-8.760986328E0,5.672454834E0
2.513214111E0,3.915603638E0,-8.710708618E0,5.637145996E0
2.515686035E0,3.857543945E0,-8.700531006E0,5.659881592E0
2.518188476E0,3.787521362E0,-8.622116089E0,5.601821899E0
2.520660400E0,3.774353027E0,-8.601165771E0,5.656295776E0
2.523132324E0,3.773147583E0,-8.553878784E0,5.731719971E0
2.525634765E0,3.744430542E0,-8.536529541E0,5.735900879E0
2.528106689E0,3.716293335E0,-8.499420166E0,5.711959839E0
2.530578613E0,3.687561035E0,-8.488037109E0,5.738891602E0
2.533081054E0,3.686370850E0,-8.472473145E0,5.797561646E0
2.535552978E0,3.660629272E0,-8.462310791E0,5.786773682E0
2.538055420E0,3.624114990E0,-8.452728271E0,5.740097046E0
2.540527343E0,3.636093140E0,-8.476669312E0,5.775405884E0
2.542999267E0,3.634887695E0,-8.500015259E0,5.755661011E0
2.545501709E0,3.582809448E0,-8.513183594E0,5.748474121E0
2.547973632E0,3.528350830E0,-8.545501709E0,5.741287231E0
2.550445556E0,3.513977051E0,-8.550292969E0,5.683822632E0
2.552947998E0,3.473281860E0,-8.561065674E0,5.679641724E0
2.555419922E0,3.435577393E0,-8.610748291E0,5.659286499E0
2.557922363E0,3.461303711E0,-8.678375244E0,5.662277222E0
2.560394287E0,3.433181763E0,-8.750808716E0,5.662277222E0
2.562866211E0,3.436767578E0,-8.805267334E0,5.671264648E0
2.565368652E0,3.489440918E0,-8.862731934E0,5.610809326E0
2.567840576E0,3.502609253E0,-8.881286621E0,5.691604614E0
2.570312500E0,3.545104980E0,-8.918991089E0,5.728118896E0
2.572814941E0,3.540313721E0,-8.932159424E0,5.783782959E0
2.575286865E0,3.537918091E0,-8.872314453E0,5.846038818E0
2.577789306E0,3.575637817E0,-8.866333008E0,5.884948730E0
2.580261230E0,3.621719360E0,-8.855545044E0,5.869384766E0
2.582733154E0,3.639083862E0,-8.835800171E0,5.953170776E0
2.585235595E0,3.645660400E0,-8.805877686E0,6.015426636E0
2.587707519E0,3.721084595E0,-8.759185791E0,6.044158936E0
2.590179443E0,3.715698242E0,-8.741821289E0,6.089645386E0
2.592681884E0,3.786926270E0,-8.673599243E0,6.102218628E0
2.595153808E0,3.774353027E0,-8.619720459E0,6.117782593E0
2.597656250E0,3.844375610E0,-8.607147217E0,6.172241211E0
2.600128173E0,3.861145020E0,-8.613143921E0,6.150100708E0
2.602600097E0,3.891067505E0,-8.592193604E0,6.135742188E0
2.605102539E0,3.940155029E0,-8.566452026E0,6.167465210E0
2.607574463E0,3.949722290E0,-8.571838379E0,6.205764771E0
2.610046386E0,3.940750122E0,-8.528152466E0,6.242279053E0
2.612548828E0,3.985641479E0,-8.495223999E0,6.274002075E0
2.615020752E0,3.980255127E0,-8.460510254E0,6.288360596E0
2.617523193E0,3.961105347E0,-8.354568481E0,6.278198242E0
2.619995117E0,4.008987427E0,-8.365936279E0,6.285964966E0
2.622467041E0,4.023941040E0,-8.325836182E0,6.282379150E0
2.624969482E0,4.049682617E0,-8.273162842E0,6.317092896E0
2.627441406E0,4.054473877E0,-8.240249634E0,6.332656860E0
2.629913330E0,4.085601807E0,-8.209716797E0,6.311706543E0
2.632415771E0,4.052673340E0,-8.249221802E0,6.372756958E0
2.634887695E0,4.050888062E0,-8.248626709E0,6.421844482E0
2.637390136E0,4.101760864E0,-8.225280762E0,6.409271240E0
2.639862060E0,4.096969604E0,-8.243240356E0,6.403884888E0
2.642333984E0,4.096969604E0,-8.252212524E0,6.454757690E0
2.644836425E0,4.109542847E0,-8.255203247E0,6.515808105E0
2.647308349E0,4.107742310E0,-8.304290771E0,6.533172607E0
2.649810791E0,4.133483887E0,-8.317459106E0,6.600204468E0
2.652282715E0,4.174179077E0,-8.325836182E0,6.624145508E0
2.654754638E0,4.149047852E0,-8.362350464E0,6.624145508E0
2.657257080E0,4.121505737E0,-8.383300781E0,6.697769165E0
2.659729004E0,4.154434204E0,-8.439559937E0,6.731292725E0
2.662200927E0,4.151443481E0,-8.428787231E0,6.743270874E0
2.664703369E0,4.186157227E0,-8.431182861E0,6.797134399E0
2.667175293E0,4.214889526E0,-8.440155029E0,6.807907104E0
2.669677734E0,4.178375244E0,-8.498214722E0,6.843826294E0
2.672149658E0,4.184356689E0,-8.490432739E0,6.850402832E0
2.674621582E0,4.221466064E0,-8.476669312E0,6.859985352E0
2.677124023E0,4.237625122E0,-8.471878052E0,6.980895996E0
2.679595947E0,4.223861694E0,-8.458709717E0,7.008422852E0
2.682067871E0,4.262176514E0,-8.441955566E0,6.988067627E0
2.684570312E0,4.233444214E0,-8.354568481E0,7.064682007E0
2.687042236E0,4.220870972E0,-8.412033081E0,7.006622314E0
2.689514160E0,4.263366699E0,-8.379699707E0,6.994659424E0
2.692016601E0,4.289703369E0,-8.462905884E0,7.164642334E0
2.694488525E0,4.265762329E0,-8.480865479E0,7.196960449E0
2.696990966E0,4.242416382E0,-8.493423462E0,7.210739136E0
2.699462890E0,4.266357422E0,-8.560470581E0,7.286148071E0
2.701934814E0,4.316040039E0,-8.579025269E0,7.428604126E0
2.704437256E0,4.265762329E0,-8.644256592E0,7.435791016E0
2.706909179E0,4.274139404E0,-8.763977051E0,7.538146973E0
2.709381103E0,4.338790894E0,-8.791503906E0,7.575851440E0
2.711883545E0,4.341781616E0,-8.832809448E0,7.636306763E0
2.714355468E0,4.377685547E0,-8.956710815E0,7.692565918E0
2.716857910E0,4.360931396E0,-9.026138306E0,7.799713135E0
2.719329834E0,4.351959229E0,-9.075225830E0,7.792526245E0
2.721801757E0,4.351959229E0,-9.145248413E0,7.827835083E0
2.724304199E0,4.417800903E0,-9.286514282E0,7.878707886E0
2.726776123E0,4.377090454E0,-9.340377808E0,7.948745728E0
2.729248047E0,4.375289917E0,-9.416397095E0,8.017578125E0
2.731750488E0,4.384872437E0,-9.548080444E0,8.084609985E0
2.734222412E0,4.398040771E0,-9.589981079E0,8.134887695E0
2.736724853E0,4.405822754E0,-9.592361450E0,8.194152832E0
2.739196777E0,4.407623291E0,-9.550476074E0,8.197143555E0
2.741668701E0,4.409408569E0,-9.569030762E0,8.245620728E0
2.744171142E0,4.432159424E0,-9.495407104E0,8.236053467E0
2.746643066E0,4.393844604E0,-9.464279175E0,8.259994507E0
2.749114990E0,4.373504639E0,-9.421783447E0,8.250411987E0
2.751617431E0,4.324417114E0,-9.385864258E0,8.282135010E0
2.754089355E0,4.293899536E0,-9.385864258E0,8.304885864E0
2.756591797E0,4.332199097E0,-9.315246582E0,8.295898438E0
2.759063720E0,4.275344849E0,-9.220672607E0,8.347976685E0
2.761535644E0,4.280120850E0,-9.176971436E0,8.334808350E0
2.764038086E0,4.273544312E0,-9.173385620E0,8.363540649E0
2.766510009E0,4.208297729E0,-9.096176147E0,8.372512817E0
2.768981933E0,4.234039307E0,-9.053665161E0,8.379104614E0
2.771484375E0,4.185562134E0,-9.050079346E0,8.335403442E0
2.773956298E0,4.141265869E0,-8.993225098E0,8.327026367E0
2.776458740E0,4.162811279E0,-8.959106445E0,8.326431274E0
2.778930664E0,4.105346680E0,-8.903442383E0,8.307876587E0
2.781402588E0,4.035919189E0,-8.846572876E0,8.257598877E0
2.783905029E0,3.998809814E0,-8.760375977E0,8.228866577E0
2.786376953E0,3.969482422E0,-8.732254028E0,8.191757202E0
2.788848877E0,4.007781982E0,-8.749603271E0,8.157638550E0
2.791351318E0,3.976058960E0,-8.710098267E0,8.168411255E0
2.793823242E0,3.965881348E0,-8.793899536E0,8.142074585E0
2.796325683E0,3.940750122E0,-8.895050049E0,8.127716064E0
2.798797607E0,3.949722290E0,-9.005187988E0,8.160629272E0
2.801269531E0,3.944335938E0,-9.165603638E0,8.082824707E0
2.803771972E0,3.934768677E0,-9.345169067E0,8.060668945E0
2.806243896E0,3.943740845E0,-9.574417114E0,8.084014893E0
2.808746338E0,3.913208008E0,-9.829391479E0,8.119338989E0
2.811218261E0,3.955108643E0,-1.006642151E1,8.105560303E0
2.813690185E0,3.997604370E0,-1.027471924E1,8.060668945E0
2.816192627E0,4.007186890E0,-1.051173401E1,8.145065308E0
2.818664550E0,4.064056396E0,-1.068531799E1,8.081619263E0
2.821136474E0,4.050888062E0,-1.080921936E1,8.031341553E0
2.823638916E0,4.062850952E0,-1.085890198E1,8.022369385E0
2.826110840E0,4.074218750E0,-1.087565613E1,7.935577393E0
2.828613281E0,4.062850952E0,-1.083316040E1,7.925994873E0
2.831085205E0,4.052078247E0,-1.073320007E1,7.836212158E0
2.833557129E0,4.047882080E0,-1.057398987E1,7.738052368E0
2.836059570E0,3.995819092E0,-1.041477966E1,7.726089478E0
2.838531494E0,3.936553955E0,-1.021127319E1,7.667419434E0
2.841003418E0,3.938949585E0,-9.971847534E0,7.617141724E0
2.843505859E0,3.924591064E0,-9.767150879E0,7.599792480E0
2.845977783E0,3.852767944E0,-9.540298462E0,7.562088013E0
2.848480224E0,3.825225830E0,-9.319427490E0,7.498641968E0
2.850952148E0,3.783935547E0,-9.094970703E0,7.511810303E0
2.853454590E0,3.727661133E0,-8.893264771E0,7.530960083E0
2.855926513E0,3.724075317E0,-8.675384521E0,7.559082031E0
2.858398437E0,3.734252930E0,-8.511978149E0,7.609970093E0
2.860900879E0,3.713302612E0,-8.335418701E0,7.675201416E0
2.863372802E0,3.719879150E0,-8.223480225E0,7.685974121E0
2.865844726E0,3.747421265E0,-8.132507324E0,7.663833618E0
2.868316650E0,3.752807617E0,-8.055297852E0,7.690170288E0
2.870819091E0,3.765380859E0,-8.037338257E0,7.714111328E0
2.873291015E0,3.797103882E0,-8.009796143E0,7.743438721E0
2.875793457E0,3.823440552E0,-8.015792847E0,7.745834351E0
2.878265381E0,3.819839478E0,-8.009201050E0,7.769180298E0
2.880737304E0,3.863540649E0,-8.007400513E0,7.756011963E0
2.883239746E0,3.914413452E0,-7.977478027E0,7.746429443E0
2.885711670E0,3.953918457E0,-7.875732422E0,7.713516235E0
2.888214111E0,3.994018555E0,-7.869735718E0,7.634506226E0
2.890686035E0,4.048492432E0,-7.903259277E0,7.629714966E0
2.893157959E0,4.120315552E0,-7.900268555E0,7.626724243E0
2.895660400E0,4.182556152E0,-7.897277832E0,7.584823608E0
2.898132324E0,4.247802734E0,-7.984069824E0,7.522583008E0
2.900604248E0,4.262771606E0,-8.066665649E0,7.445358276E0
2.903106689E0,4.347167969E0,-8.100189209E0,7.383712769E0
2.905578613E0,4.415405273E0,-8.189956665E0,7.414840698E0
2.908050537E0,4.399841309E0,-8.330627441E0,7.384307861E0
2.910552978E0,4.450714111E0,-8.490432739E0,7.314285278E0
2.913024902E0,4.462692261E0,-8.593978882E0,7.288543701E0
2.915527343E0,4.541091919E0,-8.783126831E0,7.219711304E0
2.917999267E0,4.540496826E0,-8.862136841E0,7.173019409E0
2.920471191E0,4.540496826E0,-8.709503174E0,7.128738403E0
2.922973632E0,4.436355591E0,-7.996032715E0,7.075454712E0
2.925445556E0,4.692535400E0,-8.940551758E0,6.852203369E0
2.927947998E0,4.419586182E0,-9.091384888E0,6.670837402E0
2.930419922E0,4.552474976E0,-9.620498657E0,6.637313843E0
2.932891845E0,4.574615479E0,-1.000238037E1,6.764816284E0
2.935394287E0,4.620697021E0,-1.029087830E1,6.679214478E0
2.937866211E0,4.669784546E0,-1.040460205E1,6.535568237E0
2.940338134E0,4.704498291E0,-1.056800842E1,6.565490723E0
2.942840576E0,4.678756714E0,-1.068052673E1,6.480499268E0
2.945312500E0,4.770935059E0,-1.075595093E1,6.321884155E0
2.947814941E0,4.714080811E0,-1.081820679E1,6.333862305E0
2.950286865E0,4.657211304E0,-1.080084229E1,6.238693237E0
2.952758789E0,4.560241699E0,-1.060272217E1,6.051940918E0
2.955261230E0,4.485427856E0,-1.062666321E1,5.879562378E0
2.957733154E0,4.452514648E0,-1.092654419E1,5.957962036E0
2.960205078E0,4.436950684E0,-1.130422974E1,5.742492676E0
2.962707519E0,4.418395996E0,-1.176271057E1,5.823898315E0
2.965179443E0,4.496200562E0,-1.219546509E1,5.819702148E0
2.967681884E0,4.516555786E0,-1.255101013E1,5.835861206E0
2.970153808E0,4.378890991E0,-1.241273499E1,5.765838623E0
2.972625732E0,4.308853149E0,-1.262402344E1,5.813720703E0
2.975128173E0,4.606338501E0,-1.331176758E1,5.837661743E0
2.977600097E0,4.744003296E0,-1.359786987E1,5.666473389E0
2.980072021E0,4.581192017E0,-1.363377380E1,5.649719238E0
2.982574463E0,4.489013672E0,-1.364694214E1,5.644927979E0
2.985046386E0,4.520736694E0,-1.379418945E1,5.632354736E0
2.987518310E0,4.546478271E0,-1.386361694E1,5.701782227E0
2.990020752E0,4.477050781E0,-1.385763550E1,5.790969849E0
2.992492675E0,4.416000366E0,-1.382830811E1,5.653900146E0
2.994995117E0,4.363327026E0,-1.373133850E1,5.606018066E0
2.997467041E0,4.319625854E0,-1.365771484E1,5.595245361E0
2.999938965E0,4.306457520E0,-1.356315613E1,5.562316895E0
3.002441406E0,4.237625122E0,-1.340454102E1,5.588058472E0
3.004913330E0,4.222671509E0,-1.324652100E1,5.561126709E0
3.007415771E0,4.195724487E0,-1.305917358E1,5.604827881E0
3.009887695E0,4.232833862E0,-1.296699524E1,5.659881592E0
3.012359619E0,4.158020020E0,-1.280778503E1,5.610214233E0
3.014862060E0,4.126892090E0,-1.275630188E1,5.593444824E0
3.017333984E0,4.105941772E0,-1.268148804E1,5.654495239E0
3.019805908E0,4.074829102E0,-1.268208313E1,5.670059204E0
3.022308349E0,4.024551392E0,-1.262762451E1,5.655105591E0
3.024780273E0,3.999404907E0,-1.255758667E1,5.654495239E0
3.027282715E0,4.002395630E0,-1.252406311E1,5.713760376E0
3.029754638E0,3.979049683E0,-1.244326782E1,5.728118896E0
3.032226562E0,3.954513550E0,-1.241572571E1,5.680236816E0
3.034729004E0,3.920989990E0,-1.235827637E1,5.717346191E0
3.037200927E0,3.856353760E0,-1.231637573E1,5.659286499E0
3.039672851E0,3.833007812E0,-1.221520996E1,5.634750366E0
3.042175293E0,3.794708252E0,-1.216972351E1,5.579086304E0
3.044647216E0,3.716888428E0,-1.209130859E1,5.583877563E0
3.047119140E0,3.655242920E0,-1.199075317E1,5.537185669E0
3.049621582E0,3.623519897E0,-1.194825745E1,5.493484497E0
3.052093506E0,3.531936646E0,-1.187403870E1,5.488098145E0
3.054595947E0,3.477478027E0,-1.183932495E1,5.473144531E0
3.057067871E0,3.435577393E0,-1.173995972E1,5.412094116E0
3.059539795E0,3.327835083E0,-1.163880920E1,5.367797852E0
3.062042236E0,3.293716431E0,-1.153167725E1,5.385147095E0
3.064514160E0,3.234466553E0,-1.148918152E1,5.362411499E0
3.066986084E0,3.167419434E0,-1.142033386E1,5.307342529E0
3.069488525E0,3.120727539E0,-1.131140137E1,5.284591675E0
3.071960449E0,3.097396851E0,-1.120066833E1,5.242691040E0
3.074462890E0,3.013000488E0,-1.115399170E1,5.241500854E0
3.076934814E0,2.950744629E0,-1.105403137E1,5.188827515E0
3.079406738E0,2.869949341E0,-1.097860718E1,5.084686279E0
3.081909179E0,2.827438354E0,-1.091337585E1,5.087677002E0
3.084381103E0,2.769989014E0,-1.081042480E1,5.046966553E0
3.086883545E0,2.747833252E0,-1.063563538E1,4.964965820E0
3.089355468E0,2.683197021E0,-1.055783081E1,4.936843872E0
3.091827392E0,2.613159180E0,-1.049139404E1,4.856628418E0
3.094329834E0,2.567672729E0,-1.039143372E1,4.730346680E0
3.096801757E0,2.528167725E0,-1.026513672E1,4.638763428E0
3.099273681E0,2.497039795E0,-1.015261841E1,4.504089355E0
3.101776123E0,2.418029785E0,-1.006521606E1,4.471771240E0
3.104248047E0,2.326461792E0,-1.001194763E1,4.399337769E0
3.106719970E0,2.292938232E0,-9.873687744E0,4.316741943E0
3.109222412E0,2.289352417E0,-9.773727417E0,4.248504639E0
3.111694336E0,2.275588989E0,-9.654022217E0,4.121612549E0
3.114196777E0,2.206146240E0,-9.487625122E0,4.051589966E0
3.116668701E0,2.192977905E0,-9.349349976E0,3.976165771E0
3.119140625E0,2.188186646E0,-9.305664062E0,3.807968140E0
3.121643066E0,2.129531860E0,-9.230239868E0,3.861846924E0
3.124106239E0,2.036758423E0,-9.192535400E0,3.813964844E0
3.126608680E0,2.033172607E0,-9.220062256E0,3.695449829E0
3.129080604E0,1.833251953E0,-9.175170898E0,3.660125732E0
3.131552528E0,1.231704712E0,-8.893859863E0,3.401550293E0
3.134054969E0,1.963729858E0,-8.798690796E0,3.878005981E0
3.136526893E0,2.214523315E0,-8.778335571E0,3.867233276E0
3.138998817E0,2.374343872E0,-8.779541016E0,3.423706055E0
3.141501258E0,2.476699829E0,-8.681976318E0,3.441665649E0
3.143973182E0,2.463531494E0,-9.011169434E0,3.198043823E0
3.146475624E0,2.303710938E0,-8.725067139E0,2.892791748E0
3.148947547E0,2.175628662E0,-8.770553589E0,2.663543701E0
3.151419471E0,1.985290527E0,-8.923782349E0,3.189666748E0
3.153921913E0,2.009231567E0,-8.889068604E0,3.302200317E0
3.156393837E0,2.044540405E0,-8.869323730E0,3.071151733E0
3.158865760E0,2.105590820E0,-8.886672974E0,3.180694580E0
3.161368202E0,2.140914917E0,-8.796295166E0,3.120834351E0
3.163840126E0,2.124145508E0,-8.722076416E0,3.140594482E0
3.166312049E0,2.087631226E0,-8.671798706E0,3.151367188E0
3.168814491E0,2.025985718E0,-8.521560669E0,3.035247803E0
3.171286415E0,1.709945679E0,-8.383895874E0,2.907760620E0
3.173788856E0,1.974517822E0,-8.218093872E0,2.928100586E0
3.176260780E0,2.084045410E0,-8.186965942E0,3.166931152E0
3.178732704E0,2.204360962E0,-8.085815430E0,2.949050903E0
3.181235145E0,2.324661255E0,-8.034347534E0,2.858673096E0
3.183707069E0,2.365371704E0,-7.997238159E0,2.777862549E0
3.186209510E0,2.358779907E0,-7.976882935E0,2.597702026E0
3.188681434E0,2.312698364E0,-8.054092407E0,2.688690186E0
3.191153358E0,2.212127686E0,-8.216293335E0,2.772476196E0
3.193655799E0,2.176818848E0,-8.340194702E0,2.857467651E0
3.196127723E0,2.160064697E0,-8.388687134E0,2.975982666E0
3.198599647E0,2.152877808E0,-8.420410156E0,2.959228516E0
3.201102089E0,2.125946045E0,-8.440750122E0,3.017288208E0
3.203574012E0,2.075073242E0,-8.455718994E0,3.110656738E0
3.206076454E0,2.090026855E0,-8.422195435E0,3.107070923E0
3.208548378E0,2.049331665E0,-8.285140991E0,3.069366455E0
3.211020301E0,2.049926758E0,-8.143875122E0,3.020874023E0
3.213522743E0,2.069076538E0,-8.054687500E0,3.032852173E0
3.215994667E0,2.059509277E0,-8.076232910E0,2.960418701E0
3.218466590E0,1.979904175E0,-8.018783569E0,2.921524048E0
3.220969032E0,2.020004272E0,-8.042724609E0,2.909545898E0
3.223440956E0,2.020599365E0,-7.961318970E0,2.792236328E0
3.225943397E0,2.027175903E0,-7.916427612E0,2.763504028E0
3.228415321E0,2.073867798E0,-7.851776123E0,2.858078003E0
3.230887245E0,2.034362793E0,-7.814071655E0,2.849700928E0
3.233389686E0,2.070281982E0,-7.775772095E0,2.799423218E0
3.235861610E0,2.137313843E0,-7.750625610E0,2.868255615E0
3.238333534E0,2.247451782E0,-7.665634155E0,2.834136963E0
3.240835975E0,2.346206665E0,-7.499237061E0,2.878417969E0
3.243307899E0,2.409652710E0,-7.418426514E0,2.859863281E0
3.245779823E0,2.518600464E0,-7.381317139E0,2.826354980E0
3.248282264E0,2.692764282E0,-7.211334229E0,2.759918213E0
3.250754188E0,2.840606689E0,-7.058105469E0,2.853881836E0
3.253256630E0,2.968704224E0,-6.965927124E0,2.832336426E0
3.255728553E0,3.171615601E0,-6.983291626E0,3.038238525E0
3.258200477E0,3.382904053E0,-6.931213379E0,3.177703857E0
3.260702919E0,3.480468750E0,-6.981491089E0,3.138198853E0
3.263174842E0,3.585815430E0,-7.089828491E0,3.315963745E0
3.265646766E0,3.737243652E0,-7.116165161E0,3.278854370E0
3.268149208E0,3.810272217E0,-7.149078369E0,3.278854370E0
3.270621131E0,3.875503540E0,-7.235275269E0,3.457229614E0
3.273123573E0,3.970672607E0,-7.222702026E0,3.489547729E0
3.275595497E0,4.020355225E0,-7.176620483E0,3.371627808E0
3.278067421E0,4.053283691E0,-7.234680176E0,3.406951904E0
3.280569862E0,3.913208008E0,-7.150878906E0,3.514678955E0
3.283041786E0,4.066452026E0,-7.121551514E0,3.504501343E0
3.285513710E0,3.851562500E0,-7.187988281E0,3.590698242E0
3.288016151E0,3.710311890E0,-7.156860352E0,3.238754272E0
3.290488075E0,4.032928467E0,-7.320266724E0,3.524856567E0
3.292990516E0,4.052673340E0,-7.313095093E0,3.406341553E0
3.295462440E0,4.080215454E0,-7.407653809E0,3.005310059E0
3.297934364E0,4.025146484E0,-7.373535156E0,3.071151733E0
3.300436805E0,4.060455322E0,-7.328048706E0,2.720413208E0
3.302908729E0,4.265167236E0,-7.202362061E0,2.737167358E0
3.305411171E0,4.528518677E0,-7.038360596E0,2.700653076E0
3.307883094E0,3.634887695E0,-7.374145508E0,2.825744629E0
3.310355018E0,3.408035278E0,-7.356781006E0,3.514678955E0
3.312857460E0,3.300292969E0,-7.259216309E0,3.151367188E0
3.315329383E0,3.139297485E0,-7.216720581E0,3.233367920E0
3.317801307E0,3.083618164E0,-7.093414307E0,3.304000854E0
3.320303749E0,3.160842896E0,-6.890518188E0,3.157348633E0
3.322775672E0,3.129714966E0,-6.649291992E0,3.004714966E0
3.325278114E0,3.111755371E0,-6.533767700E0,3.008316040E0
3.327750038E0,3.051300049E0,-6.432617188E0,3.040634155E0
3.330221962E0,3.145278931E0,-6.317092896E0,2.826354980E0
3.332724403E0,2.974090576E0,-6.211761475E0,2.907760620E0
3.335196327E0,3.024963379E0,-6.269210815E0,2.858673096E0
3.337668251E0,2.942962646E0,-6.215942383E0,2.856277466E0
3.340170692E0,2.959732056E0,-6.107009888E0,2.907150269E0
3.342642616E0,2.847793579E0,-6.129150391E0,2.938873291E0
3.345114540E0,2.935180664E0,-6.261428833E0,3.162139893E0
3.347616981E0,2.964508057E0,-6.327270508E0,3.160339355E0
3.350088905E0,2.930999756E0,-6.341049194E0,3.133407593E0
3.352591346E0,2.905853271E0,-6.406875610E0,3.042434692E0
3.355063270E0,3.011199951E0,-6.454162598E0,3.054397583E0
3.357535194E0,2.983062744E0,-6.494277954E0,2.931091309E0
3.360037635E0,2.991455078E0,-6.472717285E0,2.980773926E0
3.362509559E0,3.036346436E0,-6.367370605E0,2.987960815E0
3.365012001E0,3.084823608E0,-6.203979492E0,2.950851440E0
3.367483924E0,3.068664551E0,-6.118377686E0,3.009506226E0
3.369955848E0,3.085418701E0,-5.935226440E0,3.013702393E0
3.372458290E0,3.051895142E0,-5.777206421E0,3.004714966E0
3.374930214E0,3.006408691E0,-5.628173828E0,3.031051636E0
3.377402137E0,2.986053467E0,-5.572509766E0,3.020278931E0
3.379904579E0,3.035736084E0,-5.689819336E0,2.962219238E0
3.382376503E0,3.061477661E0,-5.581481934E0,2.857467651E0
3.384878944E0,3.016586304E0,-5.337280273E0,2.821563721E0
3.387350868E0,3.098587036E0,-5.286987305E0,2.762298584E0
3.389822792E0,3.239242554E0,-5.409103394E0,2.694076538E0
3.392325233E0,3.274566650E0,-5.429443359E0,2.671325684E0
3.394797157E0,3.334411621E0,-5.452194214E0,2.616851807E0
3.397299598E0,3.433181763E0,-5.467163086E0,2.591720581E0
3.399771522E0,3.524749756E0,-5.554550171E0,2.580947876E0
3.402243446E0,3.570846558E0,-5.707183838E0,2.586334229E0
3.404745887E0,3.663619995E0,-5.808334351E0,2.630630493E0
3.407217811E0,3.794097900E0,-5.814315796E0,2.671920776E0
3.409689735E0,3.894653320E0,-5.852630615E0,2.671920776E0
3.412192176E0,4.014968872E0,-5.859802246E0,2.667129517E0
3.414664100E0,4.104156494E0,-5.836471558E0,2.698257446E0
3.417136024E0,4.208297729E0,-5.801147461E0,2.763504028E0
3.419638465E0,4.365722656E0,-5.774810791E0,2.752136230E0
3.422110389E0,4.441741943E0,-5.755065918E0,2.758117676E0
3.424612831E0,4.542892456E0,-5.764038086E0,2.808990479E0
3.427084755E0,4.636260986E0,-5.821502686E0,2.792236328E0
3.429556678E0,4.700912476E0,-5.840057373E0,2.779663086E0
3.432059120E0,4.776321411E0,-5.863403320E0,2.776077271E0
3.434531044E0,4.879867554E0,-5.904693604E0,2.828750610E0
3.437033485E0,4.954696655E0,-5.935226440E0,2.879623413E0
3.439505409E0,5.110916138E0,-5.993286133E0,2.965209961E0
3.441977333E0,5.185729980E0,-6.051940918E0,3.057983398E0
3.444479774E0,5.310836792E0,-6.095642090E0,3.183090210E0
3.446951698E0,5.371887207E0,-6.129760742E0,3.293823242E0
3.449423622E0,5.485015869E0,-6.206970215E0,3.350677490E0
3.451926063E0,5.552642822E0,-6.223724365E0,3.500915527E0
3.454397987E0,5.588562012E0,-6.282379150E0,3.601470947E0
3.456869911E0,5.665176392E0,-6.379348755E0,3.590103149E0
3.459372352E0,5.686721802E0,-6.478103638E0,3.699035645E0
3.461844276E0,5.694503784E0,-6.618774414E0,3.815750122E0
3.464346717E0,5.712463379E0,-6.706756592E0,3.876800537E0
3.466818641E0,5.741195679E0,-6.782180786E0,3.893569946E0
3.469290565E0,5.734008789E0,-6.792343140E0,4.000701904E0
3.471793006E0,5.742385864E0,-6.739074707E0,4.053970337E0
3.474264930E0,5.736999512E0,-6.723510742E0,4.104858398E0
3.476736854E0,5.774703979E0,-6.722320557E0,4.211990356E0
3.479239296E0,5.716049194E0,-6.789947510E0,4.208999634E0
3.481711219E0,5.647811890E0,-6.855194092E0,4.276641846E0
3.484183143E0,5.696304321E0,-6.972518921E0,4.334701538E0
3.486685585E0,5.611907959E0,-7.098205566E0,4.450820923E0
3.489157508E0,5.557434082E0,-7.225097656E0,4.539398193E0
3.491659950E0,5.546066284E0,-7.373535156E0,4.605239868E0
3.494131874E0,5.511947632E0,-7.460922241E0,4.698013306E0
3.496603797E0,5.459274292E0,-7.526168823E0,4.808746338E0
3.499106239E0,5.389236450E0,-7.633316040E0,4.891342163E0
3.501578163E0,5.314422607E0,-7.699752808E0,5.021835327E0
3.504080604E0,5.319213867E0,-7.794921875E0,5.071517944E0
3.506552528E0,5.277313232E0,-7.915222168E0,5.128967285E0
3.509024452E0,5.142044067E0,-7.994842529E0,5.264846802E0
3.511526893E0,5.066024780E0,-8.140884399E0,5.341461182E0
3.513998817E0,4.973846436E0,-8.227081299E0,5.452194214E0
3.516470741E0,4.875686646E0,-8.303085327E0,5.601226807E0
3.518973182E0,4.819427490E0,-8.359954834E0,5.617385864E0
3.521445106E0,4.738616943E0,-8.394668579E0,5.696395874E0
3.523947547E0,4.597961426E0,-8.463500977E0,5.701782227E0
3.526419471E0,4.500991821E0,-8.494033813E0,5.735305786E0
3.528891395E0,4.426177979E0,-8.562255859E0,5.703582764E0
3.531393837E0,4.336395264E0,-8.628707886E0,5.771820068E0
3.533865760E0,4.241226196E0,-8.659225464E0,5.807128906E0
3.536337684E0,4.218475342E0,-8.613739014E0,5.835266113E0
3.538840126E0,4.183166504E0,-8.536529541E0,5.886734009E0
3.541312049E0,4.152633667E0,-8.402450562E0,5.845443726E0
3.543814491E0,4.199325562E0,-8.009201050E0,5.877761841E0
3.546286415E0,4.070632935E0,-7.747039795E0,5.765228271E0
3.548758339E0,4.087387085E0,-7.809280396E0,5.596435547E0
3.551260780E0,4.092773438E0,-7.662048340E0,5.728118896E0
3.553732704E0,4.150238037E0,-7.642883301E0,5.789779663E0
3.556204628E0,4.119720459E0,-7.597991943E0,5.863998413E0
3.558707069E0,4.151443481E0,-7.550704956E0,5.807128906E0
3.561178993E0,4.178375244E0,-7.448959351E0,5.794555664E0
3.563681434E0,4.220870972E0,-7.356781006E0,5.713760376E0
3.566153358E0,4.272338867E0,-7.191589355E0,5.611404419E0
3.568625282E0,4.256790161E0,-7.016799927E0,5.583877563E0
3.571127723E0,4.333404541E0,-6.868957520E0,5.559936523E0
3.573599647E0,4.357345581E0,-6.682815552E0,5.487503052E0
3.576071571E0,4.426177979E0,-6.502655029E0,5.477325439E0
3.578574012E0,4.495605469E0,-6.333862305E0,5.443817139E0
3.581045936E0,4.559646606E0,-6.184814453E0,5.452789307E0
3.583548378E0,4.663803101E0,-6.110595703E0,5.486907959E0
3.586020301E0,4.737426758E0,-6.136932373E0,5.481521606E0
3.588492225E0,4.846359253E0,-6.217147827E0,5.498870850E0
3.590994667E0,4.934341431E0,-6.326675415E0,5.471343994E0
3.593466590E0,5.029510498E0,-6.481109619E0,5.471343994E0
3.595938514E0,5.217453003E0,-6.651092529E0,5.428848267E0
3.598440956E0,5.371276855E0,-6.680419922E0,5.427047729E0
3.600912880E0,5.490402222E0,-6.836639404E0,5.409088135E0
3.603415321E0,5.632247925E0,-6.834243774E0,5.349838257E0
3.605887245E0,5.753158569E0,-6.774398804E0,5.333084106E0
3.608359169E0,5.794464111E0,-6.843826294E0,5.239700317E0
3.610861610E0,5.799850464E0,-6.846221924E0,5.165481567E0
3.613333534E0,5.904586792E0,-6.766006470E0,5.098449707E0
3.615805458E0,5.914764404E0,-6.668441772E0,5.084686279E0
3.618307899E0,5.949478149E0,-6.660675049E0,5.135559082E0
3.620779823E0,5.912368774E0,-6.632537842E0,5.115798950E0
3.623251747E0,5.857299805E0,-6.579269409E0,5.058349609E0
3.625754188E0,5.859695435E0,-6.545745850E0,5.053558350E0
3.628226112E0,5.860900879E0,-6.494277954E0,5.059539795E0
3.630728553E0,5.880645752E0,-6.463150024E0,5.054153442E0
3.633200477E0,5.910583496E0,-6.382934570E0,4.985916138E0
3.635672401E0,5.887237549E0,-6.334457397E0,5.017639160E0
3.638174842E0,5.908782959E0,-6.256652832E0,4.970962524E0
3.640646766E0,5.911773682E0,-6.214752197E0,4.956588745E0
3.643149208E0,5.911773682E0,-6.263824463E0,4.970962524E0
3.645621131E0,5.904586792E0,-6.310516357E0,4.918884277E0
3.648093055E0,5.920761108E0,-6.426040649E0,4.794982910E0
3.650595497E0,5.892623901E0,-6.523605347E0,4.792587280E0
3.653067421E0,5.854919434E0,-6.651092529E0,4.678268433E0
3.655539344E0,5.838150024E0,-6.829452515E0,4.615417480E0
3.658041786E0,5.810623169E0,-6.953353882E0,4.604049683E0
3.660513710E0,5.819000244E0,-7.033569336E0,4.575317383E0
3.663016151E0,5.796859741E0,-7.110183716E0,4.533416748E0
3.665488075E0,5.768127441E0,-7.096405029E0,4.520843506E0
3.667959999E0,5.787277222E0,-7.159866333E0,4.554367065E0
3.670462440E0,5.779495239E0,-7.184402466E0,4.471160889E0
3.672934364E0,5.783081055E0,-7.168243408E0,4.482543945E0
3.675436805E0,5.762741089E0,-7.187393188E0,4.533416748E0
3.677908729E0,5.777099609E0,-7.249038696E0,4.529220581E0
3.680380653E0,5.754364014E0,-7.201751709E0,4.519058228E0
3.682883094E0,5.702880859E0,-7.281372070E0,4.460388184E0
3.685355018E0,5.687911987E0,-7.330444336E0,4.483139038E0
3.687826942E0,5.659790039E0,-7.394485474E0,4.572921753E0
3.690329383E0,5.647216797E0,-7.481872559E0,4.702209473E0
3.692801307E0,5.600524902E0,-7.539337158E0,4.701004028E0
3.695273231E0,5.534683228E0,-7.643493652E0,4.766250610E0
3.697775672E0,5.531097412E0,-7.773971558E0,4.893737793E0
3.700247596E0,5.491592407E0,-7.877517700E0,4.945220947E0
3.702750038E0,5.425750732E0,-7.993041992E0,5.001480103E0
3.705221962E0,5.391036987E0,-8.144470215E0,5.040390015E0
3.707693885E0,5.328781128E0,-8.304885864E0,5.071517944E0
3.710196327E0,5.325195312E0,-8.446746826E0,5.084686279E0
3.712668251E0,5.340164185E0,-8.486251831E0,5.137954712E0
3.715140174E0,5.283294678E0,-8.594589233E0,5.177459717E0
3.717642616E0,5.210876465E0,-8.775939941E0,5.204391479E0
3.720114540E0,5.192916870E0,-8.821441650E0,5.235519409E0
3.722616981E0,5.130661011E0,-8.871109009E0,5.275024414E0
3.725088905E0,5.099548340E0,-8.928573608E0,5.335479736E0
3.727560829E0,5.055847168E0,-8.989028931E0,5.316925049E0
3.730063270E0,4.999588013E0,-9.030929565E0,5.379165649E0
3.732535194E0,4.951705933E0,-8.990829468E0,5.415084839E0
3.735007118E0,4.938537598E0,-8.943542480E0,5.439620972E0
3.737509559E0,4.938537598E0,-8.942947388E0,5.552749634E0
3.739981483E0,4.890655518E0,-8.885482788E0,5.597045898E0
3.742483924E0,4.884658813E0,-8.850769043E0,5.620376587E0
3.744955848E0,4.866104126E0,-8.783721924E0,5.677246094E0
3.747427772E0,4.860122681E0,-8.704116821E0,5.750869751E0
3.749930214E0,4.887054443E0,-8.657424927E0,5.789779663E0
3.752402137E0,4.835586548E0,-8.644256592E0,5.807128906E0
3.754874061E0,4.782318115E0,-8.689147949E0,5.804138184E0
3.757376503E0,4.793090820E0,-8.767562866E0,5.779006958E0
3.759848426E0,4.752975464E0,-8.835800171E0,5.811325073E0
3.762350868E0,4.733825684E0,-8.948333740E0,5.825683594E0
3.764822792E0,4.719467163E0,-9.015365601E0,5.802337646E0
3.767294715E0,4.765548706E0,-9.047683716E0,5.804733276E0
3.769797157E0,4.753585815E0,-9.029129028E0,5.860397339E0
3.772269081E0,4.695526123E0,-8.916000366E0,5.905899048E0
3.774741005E0,4.698516846E0,-8.794494629E0,5.910675049E0
3.777243446E0,4.685943604E0,-8.626907349E0,5.931625366E0
3.779715370E0,4.690734863E0,-8.389877319E0,5.993286133E0
3.782217811E0,4.694915771E0,-8.243240356E0,6.010635376E0
3.784689735E0,4.684143066E0,-8.125320435E0,6.054336548E0
3.787161659E0,4.723648071E0,-8.144470215E0,6.060317993E0
3.789664100E0,4.755981445E0,-8.204925537E0,6.160873413E0
3.792136024E0,4.850540161E0,-8.240844727E0,6.194992065E0
3.794607948E0,4.905609131E0,-8.261184692E0,6.150695801E0
3.797110389E0,4.946914673E0,-8.283340454E0,6.217742920E0
3.799582313E0,5.048065186E0,-8.298904419E0,6.180633545E0
3.802084755E0,5.077987671E0,-8.233062744E0,6.126159668E0
3.804556678E0,5.128265381E0,-8.189956665E0,6.091445923E0
3.807028602E0,5.212066650E0,-8.078628540E0,6.132736206E0
3.809531044E0,5.209671021E0,-7.969100952E0,6.102813721E0
3.812002967E0,5.170166016E0,-7.843399048E0,6.060913086E0
3.814474891E0,5.161193848E0,-7.724288940E0,5.975921631E0
3.816977333E0,5.179153442E0,-7.658447266E0,6.042358398E0
3.819449256E0,5.234222412E0,-7.587829590E0,6.039367676E0
3.821951698E0,5.236007690E0,-7.523773193E0,5.974731445E0
3.824423622E0,5.215667725E0,-7.461532593E0,5.970535278E0
3.826895546E0,5.195907593E0,-7.431594849E0,5.933425903E0
3.829397987E0,5.230026245E0,-7.359176636E0,5.875366211E0
3.831869911E0,5.184539795E0,-7.324462891E0,5.889724731E0
3.834341835E0,5.245590210E0,-7.316085815E0,5.866394043E0
3.836844276E0,5.206680298E0,-7.319671631E0,5.858001709E0
3.839316200E0,5.198898315E0,-7.307098389E0,5.912475586E0
3.841818641E0,5.150421143E0,-7.235870361E0,5.926239014E0
3.844290565E0,5.132461548E0,-7.229293823E0,5.884338379E0
3.846793006E0,5.134857178E0,-7.197570801E0,5.908279419E0
3.849264930E0,5.106719971E0,-7.164642334E0,5.870574951E0
3.851736854E0,5.070220947E0,-7.137115479E0,5.786773682E0
3.854208778E0,4.988204956E0,-7.125137329E0,5.781387329E0
3.856711219E0,4.931350708E0,-7.103591919E0,5.734710693E0
3.859183143E0,4.857727051E0,-7.089828491E0,5.638931274E0
3.861685585E0,4.776916504E0,-7.079650879E0,5.586868286E0
3.864157508E0,4.644638062E0,-7.010818481E0,5.505462646E0
3.866629432E0,4.568634033E0,-6.937194824E0,5.427658081E0
3.869131874E0,4.519546509E0,-6.855194092E0,5.342651367E0
3.871603797E0,4.406417847E0,-6.789352417E0,5.334869385E0
3.874075721E0,4.249008179E0,-6.739669800E0,5.273818970E0
3.876578163E0,4.201721191E0,-6.711547852E0,5.200805664E0
3.879050087E0,4.165802002E0,-6.722320557E0,5.108032227E0
3.881552528E0,4.088592529E0,-6.782180786E0,5.146331787E0
3.884024452E0,4.037719727E0,-6.793548584E0,5.099044800E0
3.886496376E0,3.967086792E0,-6.812103271E0,5.084075928E0
3.888998817E0,3.925781250E0,-6.808517456E0,5.084075928E0
3.891470741E0,3.909027100E0,-6.820480347E0,5.070312500E0
3.893942665E0,3.884490967E0,-6.785171509E0,5.036193848E0
3.896445106E0,3.825225830E0,-6.801330566E0,5.036804199E0
3.898917030E0,3.808471680E0,-6.800125122E0,5.021835327E0
3.901419471E0,3.779739380E0,-6.836639404E0,4.976348877E0
3.903891395E0,3.779144287E0,-6.869567871E0,4.957183838E0
3.906363319E0,3.700134277E0,-6.946777344E0,4.911102295E0
3.908865760E0,3.658233643E0,-6.814498901E0,4.957794189E0
3.911337684E0,3.591796875E0,-6.633728027E0,4.905715942E0
3.913809608E0,3.581619263E0,-6.743270874E0,4.865020752E0
3.916312049E0,3.551696777E0,-6.786361694E0,4.813537598E0
3.918783973E0,3.589996338E0,-6.853393555E0,4.796173096E0
3.921286415E0,3.543304443E0,-7.101196289E0,4.745300293E0
3.923758339E0,3.590591431E0,-7.192184448E0,4.774032593E0
3.926230262E0,3.574432373E0,-7.293334961E0,4.807556152E0
3.928732704E0,3.629501343E0,-7.408264160E0,4.807556152E0
3.931204628E0,3.639678955E0,-7.377731323E0,4.911102295E0
3.933676551E0,3.668411255E0,-7.405258179E0,4.865615845E0
3.936178993E0,3.685760498E0,-7.487869263E0,4.916488647E0
3.938650917E0,3.700134277E0,-7.523773193E0,4.932052612E0
3.941153358E0,3.765380859E0,-7.553710938E0,4.934448242E0
3.943625282E0,3.821640015E0,-7.574050903E0,4.986526489E0
3.946097206E0,3.844375610E0,-7.575256348E0,4.994293213E0
3.948599647E0,3.898849487E0,-7.633911133E0,5.018844604E0
3.951071571E0,3.917999268E0,-7.645889282E0,5.066131592E0
3.953574012E0,3.928771973E0,-7.636901855E0,5.106231689E0
3.956045936E0,3.969482422E0,-7.639892578E0,5.132568359E0
3.958517860E0,3.987442017E0,-7.694961548E0,5.133758545E0
3.961020301E0,4.005386353E0,-7.786544800E0,5.145736694E0
3.963492225E0,4.056274414E0,-7.872131348E0,5.178649902E0
3.965964149E0,4.042495728E0,-7.921218872E0,5.243301392E0
3.968466590E0,4.073623657E0,-8.047515869E0,5.278610229E0
3.970938514E0,4.103561401E0,-8.060684204E0,5.385757446E0
3.973410438E0,4.158615112E0,-8.062469482E0,5.450393677E0
3.975912880E0,4.114929199E0,-8.124725342E0,5.497680664E0
3.978384803E0,4.161621094E0,-8.127716064E0,5.580886841E0
3.980887245E0,4.204116821E0,-8.130706787E0,5.635940552E0
3.983359169E0,4.187957764E0,-8.140289307E0,5.642532349E0
3.985831092E0,4.213088989E0,-8.164825439E0,5.641326904E0
3.988333534E0,4.198120117E0,-8.151657104E0,5.698196411E0
3.990805458E0,4.210693359E0,-8.227676392E0,5.729919434E0
3.993277381E0,4.201110840E0,-8.268371582E0,5.750274658E0
3.995779823E0,4.210098267E0,-8.325241089E0,5.720336914E0
3.998251747E0,4.205902100E0,-8.313858032E0,5.808929443E0
4.000754188E0,4.233444214E0,-8.373718262E0,5.811325073E0
4.003226112E0,4.214889526E0,-8.369522095E0,5.833465576E0
4.005698036E0,4.204711914E0,-8.421600342E0,5.850830078E0
4.008200477E0,4.230453491E0,-8.519165039E0,5.819702148E0
4.010672401E0,4.236434937E0,-8.508987427E0,5.846633911E0
4.013144325E0,4.252593994E0,-8.467697144E0,5.879562378E0
4.015646766E0,4.263961792E0,-8.465301514E0,5.901702881E0
4.018118690E0,4.271148682E0,-8.421600342E0,5.877761841E0
4.020621131E0,4.241821289E0,-8.409637451E0,5.818496704E0
4.023093055E0,4.277130127E0,-8.385086060E0,5.767028809E0
4.025564979E0,4.280120850E0,-8.334213257E0,5.773605347E0
4.028067421E0,4.322021484E0,-8.313262939E0,5.840652466E0
4.030539344E0,4.342376709E0,-8.297103882E0,5.852020264E0
4.033041786E0,4.350158691E0,-8.279144287E0,5.860397339E0
4.035513710E0,4.329803467E0,-8.334808350E0,5.875366211E0
4.037985633E0,4.338790894E0,-8.332412720E0,5.874176025E0
4.040488075E0,4.353744507E0,-8.332412720E0,5.879562378E0
4.042959999E0,4.389068604E0,-8.359954834E0,5.794555664E0
4.045431922E0,4.392654419E0,-8.384490967E0,5.803543091E0
4.047934364E0,4.396850586E0,-8.392272949E0,5.825088501E0
4.050406288E0,4.420181274E0,-8.369522095E0,5.801742554E0
4.052878212E0,4.412399292E0,-8.428787231E0,5.784988403E0
4.055380653E0,4.476455688E0,-8.429382324E0,5.758056641E0
4.057852577E0,4.426773071E0,-8.415023804E0,5.768829346E0
4.060355018E0,4.498001099E0,-8.494628906E0,5.746078491E0
4.062826942E0,4.511764526E0,-8.547897339E0,5.738296509E0
4.065298866E0,4.514755249E0,-8.606552124E0,5.715560913E0
4.067801307E0,4.473464966E0,-8.641876221E0,5.626968384E0
4.070273231E0,4.483032227E0,-8.696929932E0,5.576095581E0
4.072745155E0,4.520141602E0,-8.729858398E0,5.608413696E0
4.075247596E0,4.482437134E0,-8.734649658E0,5.587463379E0
4.077719520E0,4.462692261E0,-8.711898804E0,5.516830444E0
4.080221962E0,4.498596191E0,-8.626312256E0,5.464157104E0
4.082693885E0,4.512969971E0,-8.641265869E0,5.509658813E0
4.085196327E0,4.507583618E0,-8.638870239E0,5.443817139E0
4.087668251E0,4.493804932E0,-8.560470581E0,5.433639526E0
4.090140174E0,4.469863892E0,-8.579620361E0,5.504272461E0
4.092612098E0,4.510574341E0,-8.612533569E0,5.505462646E0
4.095114540E0,4.474060059E0,-8.608352661E0,5.472549438E0
4.097586464E0,4.477645874E0,-8.583206177E0,5.498275757E0
4.100088905E0,4.486633301E0,-8.628097534E0,5.538375854E0
4.102560829E0,4.477050781E0,-8.638870239E0,5.555740356E0
4.105032753E0,4.490814209E0,-8.644866943E0,5.549163818E0
4.107535194E0,4.439346313E0,-8.650848389E0,5.588653564E0
4.110007118E0,4.466873169E0,-8.672393799E0,5.564117432E0
4.112479042E0,4.451309204E0,-8.650848389E0,5.556930542E0
4.114981483E0,4.463882446E0,-8.684371948E0,5.546157837E0
4.117453407E0,4.451309204E0,-8.706512451E0,5.559326172E0
4.119955848E0,4.421981812E0,-8.704711914E0,5.598831177E0
4.122427772E0,4.475250244E0,-8.739440918E0,5.632354736E0
4.124899696E0,4.482437134E0,-8.773544312E0,5.655700684E0
4.127402137E0,4.515350342E0,-8.895050049E0,5.676055908E0
4.129874061E0,4.490814209E0,-8.944137573E0,5.779602051E0
4.132345985E0,4.551269531E0,-9.037506104E0,5.796356201E0
4.134848426E0,4.590179443E0,-9.184158325E0,5.860397339E0
4.137320350E0,4.617111206E0,-9.290100098E0,5.944198608E0
4.139822792E0,4.639862061E0,-9.379287720E0,5.992080688E0
4.142294715E0,4.703308105E0,-9.523529053E0,6.013626099E0
4.144766639E0,4.787704468E0,-9.707885742E0,6.141723633E0
4.147269081E0,4.779922485E0,-9.844955444E0,6.226715088E0
4.149741005E0,4.814636230E0,-9.959274292E0,6.257247925E0
4.152212928E0,4.849349976E0,-1.003828430E1,6.297348022E0
4.154715370E0,4.921173096E0,-1.011610413E1,6.396697998E0
4.157187294E0,4.912200928E0,-1.020887756E1,6.419448853E0
4.159689735E0,4.902618408E0,-1.026095581E1,6.481704712E0
4.162161659E0,4.936737061E0,-1.027650452E1,6.518814087E0
4.164633583E0,4.952301025E0,-1.035731506E1,6.605590820E0
4.167136024E0,4.995391846E0,-1.035012817E1,6.703155518E0
4.169607948E0,4.979232788E0,-1.039501953E1,6.780975342E0
4.172110389E0,5.035491943E0,-1.051473999E1,6.818084717E0
4.174582313E0,5.018737793E0,-1.051533508E1,6.874938965E0
4.177054237E0,5.015151978E0,-1.056262207E1,6.985671997E0
4.179556678E0,4.985824585E0,-1.057218933E1,6.982681274E0
4.182028602E0,5.021133423E0,-1.060331726E1,7.010818481E0
4.184500526E0,5.060043335E0,-1.060212708E1,7.026382446E0
4.187002967E0,5.067825317E0,-1.061109924E1,7.093414307E0
4.189474891E0,5.097747803E0,-1.056979370E1,7.226898193E0
4.191946815E0,5.057052612E0,-1.056202698E1,7.258621216E0
4.194449256E0,5.112106323E0,-1.054945374E1,7.286148071E0
4.196921180E0,5.199493408E0,-1.048420715E1,7.287353516E0
4.199423622E0,5.212066650E0,-1.049797058E1,7.312484741E0
4.201895546E0,5.228225708E0,-1.048420715E1,7.300521851E0
4.204367469E0,5.290481567E0,-1.047763062E1,7.290344238E0
4.206869911E0,5.318618774E0,-1.042555237E1,7.302902222E0
4.209341835E0,5.328781128E0,-1.039382935E1,7.356185913E0
4.211813758E0,5.389236450E0,-1.039083862E1,7.346603394E0
4.214316200E0,5.413787842E0,-1.041238403E1,7.398071289E0
4.216788124E0,5.426345825E0,-1.044590759E1,7.401077271E0
4.219290565E0,5.501174927E0,-1.044949341E1,7.380126953E0
4.221762489E0,5.522720337E0,-1.050994873E1,7.434585571E0
4.224234413E0,5.549057007E0,-1.058058167E1,7.477081299E0
4.226736854E0,5.595138550E0,-1.052551270E1,7.524368286E0
4.229208778E0,5.602325439E0,-1.048361206E1,7.554306030E0
4.231680702E0,5.591552734E0,-1.054167175E1,7.587219238E0
4.234183143E0,5.635238647E0,-1.060391235E1,7.599792480E0
4.236655067E0,5.739395142E0,-1.068591309E1,7.643478394E0
4.239157508E0,5.774703979E0,-1.072842407E1,7.708724976E0
4.241629432E0,5.785476685E0,-1.062905884E1,7.756607056E0
4.244101356E0,5.741790771E0,-1.010592651E1,7.867340088E0
4.246603797E0,5.617889404E0,-9.449905396E0,7.918212891E0
4.249075721E0,5.599929810E0,-9.855133057E0,7.621337891E0
4.251547645E0,5.549057007E0,-9.838973999E0,7.666824341E0
4.254050087E0,5.660385132E0,-1.002093506E1,7.730865479E0
4.256522010E0,5.668762207E0,-1.000596619E1,7.813476562E0
4.259024452E0,5.711257935E0,-9.967056274E0,7.838012695E0
4.261496376E0,5.765731812E0,-9.769531250E0,7.951141357E0
4.263968299E0,5.812408447E0,-9.628280640E0,8.017578125E0
4.266470741E0,5.863296509E0,-9.436752319E0,8.045104980E0
4.268942665E0,5.865692139E0,-9.258972168E0,8.050491333E0
4.271414589E0,5.907592773E0,-9.013565063E0,7.996627808E0
4.273917030E0,5.864486694E0,-8.782531738E0,8.061279297E0
4.276388954E0,5.896804810E0,-8.535919189E0,8.078033447E0
4.278891395E0,5.887237549E0,-8.277954102E0,8.115142822E0
4.281363319E0,5.841140747E0,-8.125915527E0,8.117538452E0
4.283835243E0,5.810028076E0,-7.981063843E0,8.101379395E0
4.286337684E0,5.789672852E0,-7.891281128E0,8.056488037E0
4.288809608E0,5.759140015E0,-7.796112061E0,8.085815430E0
4.291281532E0,5.711853027E0,-7.739257812E0,8.047500610E0
4.293783973E0,5.728027344E0,-7.760803223E0,8.025360107E0
4.296255897E0,5.795059204E0,-7.842803955E0,7.985260010E0
4.298758339E0,5.778900146E0,-7.906845093E0,7.913436890E0
4.301230262E0,5.767532349E0,-7.932586670E0,7.893676758E0
4.303702186E0,5.804031372E0,-8.042724609E0,7.815261841E0
4.306204628E0,5.807022095E0,-8.058288574E0,7.758407593E0
4.308676551E0,5.816009521E0,-8.062469482E0,7.663238525E0
4.311148475E0,5.826187134E0,-8.106170654E0,7.602188110E0
4.313650917E0,5.827972412E0,-8.106765747E0,7.482467651E0
4.316122840E0,5.804641724E0,-8.169021606E0,7.359176636E0
4.318625282E0,5.807632446E0,-8.261795044E0,7.297515869E0
4.321097206E0,5.784286499E0,-8.349777222E0,7.250839233E0
4.323599647E0,5.761535645E0,-8.440750122E0,7.158065796E0
4.326071571E0,5.783691406E0,-8.516769409E0,7.034759521E0
4.328543495E0,5.755554199E0,-8.686157227E0,6.961730957E0
4.331015419E0,5.765731812E0,-8.770553589E0,6.854598999E0
4.333517860E0,5.764526367E0,-8.936355591E0,6.767211914E0
4.335989784E0,5.756149292E0,-9.066833496E0,6.701965332E0
4.338492225E0,5.724426270E0,-9.159011841E0,6.621765137E0
4.340964149E0,5.714859009E0,-9.333190918E0,6.506835938E0
4.343436073E0,5.721435547E0,-9.444519043E0,6.358398438E0
4.345938514E0,5.731018066E0,-9.610916138E0,6.225524902E0
4.348410438E0,5.747177124E0,-9.747390747E0,6.153686523E0
4.350882362E0,5.678344727E0,-9.881469727E0,6.032180786E0
4.353384803E0,5.665771484E0,-1.001254272E1,5.873565674E0
4.355856727E0,5.650207520E0,-1.017416382E1,5.757446289E0
4.358359169E0,5.606521606E0,-1.031781006E1,5.625778198E0
4.360831092E0,5.603515625E0,-1.047343445E1,5.466552734E0
4.363303016E0,5.533493042E0,-1.064341736E1,5.354034424E0
4.365805458E0,5.534088135E0,-1.083615112E1,5.251678467E0
4.368277381E0,5.543670654E0,-1.101571655E1,5.146926880E0
4.370749305E0,5.520919800E0,-1.123060608E1,5.054153442E0
4.373251747E0,5.486801147E0,-1.134252930E1,4.959579468E0
4.375723671E0,5.456878662E0,-1.149635315E1,4.851852417E0
4.378226112E0,5.422760010E0,-1.156579590E1,4.799179077E0
4.380698036E0,5.440124512E0,-1.183752441E1,4.636962891E0
4.383169960E0,5.356918335E0,-1.177647400E1,4.572326660E0
4.385672401E0,5.300659180E0,-1.197100830E1,4.453216553E0
4.388144325E0,5.291076660E0,-1.220265198E1,4.479553223E0
4.390616249E0,5.242599487E0,-1.226190186E1,4.471160889E0
4.393118690E0,5.172561646E0,-1.231877136E1,4.377792358E0
4.395590614E0,5.065429688E0,-1.238879395E1,4.342483521E0
4.398093055E0,5.044479370E0,-1.247259521E1,4.361038208E0
4.400564979E0,4.918777466E0,-1.245703125E1,4.379592896E0
4.403036903E0,4.940322876E0,-1.262582397E1,4.376602173E0
4.405539344E0,4.849349976E0,-1.270901489E1,4.387969971E0
4.408011268E0,4.758972168E0,-1.272578430E1,4.398742676E0
4.410483192E0,4.670379639E0,-1.273475647E1,4.455612183E0
4.412985633E0,4.594360352E0,-1.274673462E1,4.535217285E0
4.415457557E0,4.515350342E0,-1.271800232E1,4.539993286E0
4.417959999E0,4.416595459E0,-1.270004272E1,4.586090088E0
4.420431922E0,4.329208374E0,-1.266831970E1,4.659713745E0
4.422903846E0,4.217880249E0,-1.264855957E1,4.701614380E0
4.425406288E0,4.163406372E0,-1.261505127E1,4.751281738E0
4.427878212E0,4.059265137E0,-1.259948730E1,4.818923950E0
4.430380653E0,3.979049683E0,-1.257614136E1,4.841064453E0
4.432852577E0,3.907821655E0,-1.243069458E1,4.882965088E0
4.435324501E0,3.844375610E0,-1.238101196E1,4.869796753E0
4.437826942E0,3.792907715E0,-1.231816101E1,4.882965088E0
4.440298866E0,3.677383423E0,-1.223855591E1,4.859619141E0
4.442770790E0,3.668411255E0,-1.220265198E1,4.884765625E0
4.445273231E0,3.606155396E0,-1.207156372E1,4.908111572E0
4.447745155E0,3.572647095E0,-1.201350403E1,4.866210938E0
4.450217079E0,3.460708618E0,-1.192132568E1,4.866806030E0
4.452719520E0,3.401458740E0,-1.182077026E1,4.856033325E0
4.455191444E0,3.361358643E0,-1.171063232E1,4.868011475E0
4.457693885E0,3.358352661E0,-1.158314514E1,4.789001465E0
4.460165809E0,3.299697876E0,-1.147720337E1,4.771636963E0
4.462637733E0,3.309280396E0,-1.138623047E1,4.777023315E0
4.465140174E0,3.265579224E0,-1.126171875E1,4.729141235E0
4.467612098E0,3.212905884E0,-1.115638733E1,4.748901367E0
4.470114540E0,3.127914429E0,-1.100494385E1,4.720764160E0
4.472586464E0,3.153060913E0,-1.090977478E1,4.651336670E0
4.475058387E0,3.099182129E0,-1.078108215E1,4.689041138E0
4.477560829E0,3.042327881E0,-1.069490051E1,4.668090820E0
4.480032753E0,3.027359009E0,-1.055662537E1,4.621398926E0
4.482504676E0,3.012390137E0,-1.048719788E1,4.630981445E0
4.485007118E0,3.023178101E0,-1.038185120E1,4.639953613E0
4.487479042E0,2.970504761E0,-1.023042297E1,4.658508301E0
4.489981483E0,2.965713501E0,-1.009634399E1,4.701614380E0
4.492453407E0,2.987854004E0,-1.004067993E1,4.684844971E0
4.494925331E0,2.959732056E0,-9.945510864E0,4.694427490E0
4.497427772E0,2.953735352E0,-9.855133057E0,4.739318848E0
4.499899696E0,2.944763184E0,-9.801269531E0,4.773437500E0
4.502371620E0,2.963317871E0,-9.786300659E0,4.745300293E0
4.504874061E0,2.960327148E0,-9.798263550E0,4.761459351E0
4.507345985E0,2.934585571E0,-9.800064087E0,4.801559448E0
4.509848426E0,2.953140259E0,-9.795272827E0,4.793182373E0
4.512320350E0,2.940567017E0,-9.751586914E0,4.762664795E0
4.514792274E0,2.942367554E0,-9.748596191E0,4.765655518E0
4.517294715E0,2.923812866E0,-9.712081909E0,4.750686646E0
4.519766639E0,2.951950073E0,-9.674972534E0,4.726745605E0
4.522238563E0,2.929794312E0,-9.564239502E0,4.692031860E0
4.524741005E0,2.886108398E0,-9.519348145E0,4.589675903E0
4.527212928E0,2.864547729E0,-9.467269897E0,4.613021851E0
4.529715370E0,2.845993042E0,-9.427764893E0,4.599853516E0
4.532187294E0,2.844207764E0,-9.387069702E0,4.554962158E0
4.534689735E0,2.855575562E0,-9.361328125E0,4.551971436E0
4.537161659E0,2.848388672E0,-9.360137939E0,4.520843506E0
4.539633583E0,2.834625244E0,-9.374496460E0,4.473556519E0
4.542105506E0,2.850189209E0,-9.330200195E0,4.446624756E0
4.544607948E0,2.817871094E0,-9.306854248E0,4.358047485E0
4.547079872E0,2.811279297E0,-9.284118652E0,4.308364868E0
4.549551796E0,2.829833984E0,-9.261367798E0,4.206008911E0
4.552054237E0,2.798721313E0,-9.178771973E0,4.147354126E0
4.554526161E0,2.816665649E0,-9.153030396E0,4.125198364E0
4.557028602E0,2.784942627E0,-9.090179443E0,4.061752319E0
4.559500526E0,2.787933350E0,-9.020751953E0,3.936660767E0
4.561972450E0,2.769378662E0,-9.044097900E0,3.851669312E0
4.564474891E0,2.692169189E0,-9.010574341E0,3.764282227E0
4.566946815E0,2.666427612E0,-8.977661133E0,3.661331177E0
4.569449256E0,2.611373901E0,-8.949523926E0,3.609848022E0
4.571921180E0,2.583831787E0,-8.921386719E0,3.535034180E0
4.574393104E0,2.568267822E0,-8.848373413E0,3.456619263E0
4.576895546E0,2.501235962E0,-8.798690796E0,3.351272583E0
4.579367469E0,2.426422119E0,-8.759185791E0,3.329132080E0
4.581869911E0,2.377334595E0,-8.646652222E0,3.227386475E0
4.584341835E0,2.291137695E0,-8.604766846E0,3.227981567E0
4.586813758E0,2.232482910E0,-8.604766846E0,3.207626343E0
4.589316200E0,2.201965332E0,-8.519760132E0,3.182495117E0
4.591788124E0,2.122360229E0,-8.506591797E0,3.125625610E0
4.594260047E0,2.085845947E0,-8.528152466E0,3.014297485E0
4.596762489E0,1.980499268E0,-8.534729004E0,2.977783203E0
4.599234413E0,1.927825928E0,-8.526947021E0,2.956832886E0
4.601706337E0,1.839233398E0,-8.505996704E0,2.978378296E0
4.604208778E0,1.796737671E0,-8.552688599E0,2.944869995E0
4.606680702E0,1.767410278E0,-8.580810547E0,2.861663818E0
4.609183143E0,1.687805176E0,-8.514984131E0,2.859268188E0
4.611655067E0,1.674636841E0,-8.523361206E0,2.909545898E0
4.614126991E0,1.604598999E0,-8.514984131E0,2.857467651E0
4.616629432E0,1.541763306E0,-8.497024536E0,2.827545166E0
4.619101356E0,1.498657227E0,-8.482650757E0,2.862258911E0
4.621573280E0,1.440597534E0,-8.460510254E0,2.817367554E0
4.624075721E0,1.401092529E0,-8.432373047E0,2.794021606E0
4.626547645E0,1.328079224E0,-8.339599609E0,2.792831421E0
4.629050087E0,1.297546387E0,-8.328826904E0,2.815582275E0
4.631522010E0,1.211959839E0,-8.345581055E0,2.846099854E0
4.633993934E0,1.144912720E0,-8.331222534E0,2.827545166E0
4.636496376E0,1.104217529E0,-8.309082031E0,2.807189941E0
4.638968299E0,1.092849731E0,-8.254608154E0,2.801208496E0
4.641470741E0,1.032989502E0,-8.251617432E0,2.755126953E0
4.643942665E0,9.964752197E-1,-8.257003784E0,2.801208496E0
4.646414589E0,9.078979492E-1,-8.242630005E0,2.798217773E0
4.648917030E0,8.971252441E-1,-8.215698242E0,2.766494751E0
4.651388954E0,8.264923096E-1,-8.241439819E0,2.740753174E0
4.653860878E0,7.397003174E-1,-8.228866577E0,2.719802856E0
4.656363319E0,7.355041504E-1,-8.195358276E0,2.748535156E0
4.658835243E0,6.433410645E-1,-8.201934814E0,2.727584839E0
4.661307167E0,5.972442627E-1,-8.202529907E0,2.656356812E0
4.663809608E0,5.403900146E-1,-8.261184692E0,2.670135498E0
4.666281532E0,5.020751953E-1,-8.280349731E0,2.618057251E0
4.668783973E0,4.170837402E-1,-8.242034912E0,2.558792114E0
4.671255897E0,3.255004883E-1,-8.232467651E0,2.596511841E0
4.673727821E0,3.278961182E-1,-8.203125000E0,2.549819946E0
4.676230262E0,3.069458008E-1,-8.191162109E0,2.560592651E0
4.678702186E0,2.943725586E-1,-8.088806152E0,2.583343506E0
4.681174110E0,2.859954834E-1,-7.981674194E0,2.540237427E0
4.683676551E0,2.704315186E-1,-7.944564819E0,2.600097656E0
4.686148475E0,2.632598877E-1,-7.930786133E0,2.643188477E0
4.688650917E0,2.512817383E-1,-7.943359375E0,2.691680908E0
4.691122840E0,2.632598877E-1,-7.918228149E0,2.741958618E0
4.693594764E0,2.644500732E-1,-7.949951172E0,2.805404663E0
4.696097206E0,2.979736328E-1,-7.980468750E0,2.853286743E0
4.698569130E0,2.692413330E-1,-7.949340820E0,2.876037598E0
4.701041053E0,2.818145752E-1,-8.026565552E0,2.917327881E0
4.703543495E0,2.518768311E-1,-8.028350830E0,2.973587036E0
4.706015419E0,2.602691650E-1,-8.090011597E0,3.031646729E0
4.708517860E0,2.955780029E-1,-8.172012329E0,3.017883301E0
4.710989784E0,3.308868408E-1,-8.219299316E0,3.053207397E0
4.713461708E0,3.135375977E-1,-8.287521362E0,3.114257812E0
4.715964149E0,3.051605225E-1,-8.272567749E0,3.190872192E0
4.718436073E0,2.925872803E-1,-8.360549927E0,3.181289673E0
4.720907997E0,3.015594482E-1,-8.478469849E0,3.154357910E0
4.723410438E0,3.650054932E-1,-8.492233276E0,3.230377197E0
4.725882362E0,3.350830078E-1,-8.554473877E0,3.214218140E0
4.728384803E0,3.482513428E-1,-8.659820557E0,3.258499146E0
4.730856727E0,3.560333252E-1,-8.723266602E0,3.229171753E0
4.733328651E0,3.284912109E-1,-8.818435669E0,3.256103516E0
4.735831092E0,3.255004883E-1,-8.901641846E0,3.199249268E0
4.738303016E0,3.123321533E-1,-9.028533936E0,3.203430176E0
4.740774940E0,2.476959229E-1,-9.036315918E0,3.166320801E0
4.743277381E0,2.057952881E-1,-9.018951416E0,3.211822510E0
4.745749305E0,1.573181152E-1,-9.035720825E0,3.257308960E0
4.748251747E0,1.387634277E-1,-9.065048218E0,3.216003418E0
4.750723671E0,7.710266113E-2,-8.980651855E0,3.267486572E0
4.753195594E0,7.411193848E-2,-8.908828735E0,3.337509155E0
4.755698036E0,2.922058105E-2,-8.849563599E0,3.323745728E0
4.758169960E0,3.042602539E-2,-8.789108276E0,3.380004883E0
4.760641883E0,2.143859863E-2,-8.779541016E0,3.435073853E0
4.763144325E0,3.999328613E-2,-8.740631104E0,3.486557007E0
4.765616249E0,2.682495117E-2,-8.725067139E0,3.549392700E0
4.768118690E0,5.256652832E-2,-8.708908081E0,3.579925537E0
4.770590614E0,9.446716309E-2,-8.640075684E0,3.672698975E0
4.773062538E0,1.363677979E-1,-8.661026001E0,3.700241089E0
4.775564979E0,1.549224854E-1,-8.656234741E0,3.680480957E0
4.778036903E0,1.986083984E-1,-8.648452759E0,3.764282227E0
4.780508827E0,2.476959229E-1,-8.647857666E0,3.705627441E0
4.783011268E0,2.824096680E-1,-8.631103516E0,3.702621460E0
4.785483192E0,3.380737305E-1,-8.664611816E0,3.724182129E0
4.787985633E0,3.590240479E-1,-8.729263306E0,3.775650024E0
4.790457557E0,3.901519775E-1,-8.738830566E0,3.729568481E0
4.792929481E0,4.494018555E-1,-8.750808716E0,3.721176147E0
4.795431922E0,5.068664551E-1,-8.804672241E0,3.748123169E0
4.797903846E0,5.224304199E-1,-8.875305176E0,3.703231812E0
4.800375770E0,5.577392578E-1,-8.924987793E0,3.664916992E0
4.802878212E0,6.391448975E-1,-8.999801636E0,3.711013794E0
4.805350135E0,7.115631104E-1,-9.053070068E0,3.718795776E0
4.807852577E0,7.025909424E-1,-9.138671875E0,3.688262939E0
4.810324501E0,7.821960449E-1,-9.202713013E0,3.639785767E0
4.812796424E0,8.169097900E-1,-9.300872803E0,3.678085327E0
4.815298866E0,8.324737549E-1,-9.368515015E0,3.711608887E0
4.817770790E0,8.881378174E-1,-9.454101562E0,3.727172852E0
4.820242714E0,9.623565674E-1,-9.509765625E0,3.688858032E0
4.822745155E0,9.665527344E-1,-9.610321045E0,3.708007812E0
4.825217079E0,1.015029907E0,-9.681549072E0,3.752899170E0
4.827719520E0,1.079681396E0,-9.725250244E0,3.685867310E0
4.830191444E0,1.119781494E0,-9.771926880E0,3.661331177E0
4.832663368E0,1.161682129E0,-9.756973267E0,3.606262207E0
4.835165809E0,1.229919434E0,-9.772537231E0,3.619430542E0
4.837637733E0,1.334655762E0,-9.816818237E0,3.622421265E0
4.840109657E0,1.334655762E0,-9.827590942E0,3.642776489E0
4.842612098E0,1.395111084E0,-9.812042236E0,3.615234375E0
4.845084022E0,1.495666504E0,-9.834777832E0,3.626007080E0
4.847586464E0,1.576477051E0,-9.814422607E0,3.617034912E0
4.850058387E0,1.653686523E0,-9.913192749E0,3.652954102E0
4.852530311E0,1.705764771E0,-9.945510864E0,3.670303345E0
4.855032753E0,1.826065063E0,-9.984420776E0,3.718185425E0
4.857504676E0,1.860183716E0,-1.008557129E1,3.770263672E0
4.859976600E0,1.935012817E0,-1.019689941E1,3.810363770E0
4.862479042E0,1.978698730E0,-1.029028320E1,3.860046387E0
4.864950965E0,2.065490723E0,-1.044230652E1,3.964797974E0
4.867453407E0,2.076263428E0,-1.061769104E1,3.962402344E0
4.869925331E0,2.172637939E0,-1.076373291E1,4.022247314E0
4.872397255E0,2.267807007E0,-1.091995239E1,4.076126099E0
4.874899696E0,2.344421387E0,-1.105403137E1,4.096481323E0
4.877371620E0,2.440185547E0,-1.116654968E1,4.171890259E0
4.879843544E0,2.539535522E0,-1.131320190E1,4.192840576E0
4.882345985E0,2.610168457E0,-1.144068909E1,4.201217651E0
4.884817909E0,2.720306396E0,-1.159930420E1,4.256881714E0
4.887320350E0,2.798721313E0,-1.167712402E1,4.232940674E0
4.889792274E0,2.899276733E0,-1.179203796E1,4.301177979E0
4.892264198E0,3.008209229E0,-1.190875244E1,4.428665161E0
4.894766639E0,3.115341187E0,-1.202487183E1,4.460998535E0
4.897238563E0,3.165023804E0,-1.209130859E1,4.522048950E0
4.899710487E0,3.242843628E0,-1.218768311E1,4.541793823E0
4.902212928E0,3.273361206E0,-1.221520996E1,4.585494995E0
4.904684852E0,3.365539551E0,-1.225592041E1,4.610626221E0
4.907187294E0,3.413421631E0,-1.228344727E1,4.656723022E0
4.909659217E0,3.448745728E0,-1.225950623E1,4.692031860E0
4.912131141E0,3.465499878E0,-1.222898865E1,4.684249878E0
4.914633583E0,3.497222900E0,-1.216075134E1,4.703399658E0
4.917105506E0,3.534927368E0,-1.212722778E1,4.725555420E0
4.919577430E0,3.572036743E0,-1.201649475E1,4.668685913E0
4.922079872E0,3.595382690E0,-1.195964050E1,4.612426758E0
4.924551796E0,3.604965210E0,-1.188841248E1,4.625595093E0
4.927054237E0,3.588806152E0,-1.178665161E1,4.599853516E0
4.929526161E0,3.563064575E0,-1.165257263E1,4.564544678E0
4.931998085E0,3.546905518E0,-1.157656860E1,4.544189453E0
4.934500526E0,3.516372681E0,-1.149217224E1,4.513656616E0
4.936972450E0,3.483459473E0,-1.137844849E1,4.505279541E0
4.939444374E0,3.543914795E0,-1.126052856E1,4.413101196E0
4.941946815E0,3.507400513E0,-1.122700500E1,4.408325195E0
4.944418739E0,3.496627808E0,-1.111328125E1,4.387969971E0
4.946921180E0,3.544509888E0,-1.101870728E1,4.241317749E0
4.949393104E0,3.556472778E0,-1.090858459E1,4.191650391E0
4.951865028E0,3.600769043E0,-1.080862427E1,4.149139404E0
4.954367469E0,3.654647827E0,-1.071525574E1,4.080307007E0
4.956839393E0,3.740234375E0,-1.069609070E1,3.949829102E0
4.959311317E0,3.777343750E0,-1.064163208E1,3.879196167E0
4.961813758E0,3.801284790E0,-1.063504028E1,3.819946289E0
4.964285682E0,3.838989258E0,-1.059613037E1,3.721786499E0
4.966788124E0,3.938354492E0,-1.065000916E1,3.713409424E0
4.969260047E0,3.998214722E0,-1.062725830E1,3.623626709E0
4.971731971E0,4.065246582E0,-1.061947632E1,3.607452393E0
4.974234413E0,4.126892090E0,-1.065957642E1,3.533233643E0
4.976706337E0,4.222671509E0,-1.072422791E1,3.472183228E0
4.979178260E0,4.282516479E0,-1.073260498E1,3.380004883E0
4.981680702E0,4.376495361E0,-1.083735657E1,3.312973022E0
4.984152626E0,4.445327759E0,-1.084094238E1,3.274658203E0
4.986655067E0,4.539901733E0,-1.093013000E1,3.206436157E0
4.989126991E0,4.614120483E0,-1.099836731E1,3.159149170E0
4.991629432E0,4.670379639E0,-1.106060791E1,3.092712402E0
4.994101356E0,4.715270996E0,-1.116177368E1,3.044219971E0
4.996573280E0,4.747589111E0,-1.124256897E1,3.000534058E0
4.999045204E0,4.800262451E0,-1.133953857E1,2.915527344E0
5.001547645E0,4.892440796E0,-1.146942139E1,2.850891113E0
5.004019569E0,4.930145264E0,-1.158074951E1,2.840118408E0
5.006522010E0,4.955291748E0,-1.167413330E1,2.718612671E0
5.008993934E0,5.014541626E0,-1.177108765E1,2.713821411E0
5.011465858E0,5.035491943E0,-1.187763977E1,2.598907471E0
5.013968299E0,5.089965820E0,-1.196083069E1,2.558792114E0
5.016440223E0,5.183334351E0,-1.204522705E1,2.554016113E0
5.018912147E0,5.184539795E0,-1.212065125E1,2.518692017E0
5.021414589E0,5.251571655E0,-1.216972351E1,2.440887451E0
5.023886512E0,5.285690308E0,-1.223556519E1,2.459442139E0
5.026388954E0,5.304840088E0,-1.228166199E1,2.387008667E0
5.028860878E0,5.347946167E0,-1.232475281E1,2.347503662E0
5.031332801E0,5.447891235E0,-1.235168457E1,2.294235229E0
5.033835243E0,5.478424072E0,-1.238461304E1,2.264312744E0
5.036307167E0,5.521514893E0,-1.240077209E1,2.241561890E0
5.038779090E0,5.535888672E0,-1.249833679E1,2.242172241E0
5.041281532E0,5.536483765E0,-1.255938721E1,2.202667236E0
5.043753456E0,5.564620972E0,-1.258152771E1,2.190689087E0
5.046255897E0,5.623870850E0,-1.264796448E1,2.247558594E0
5.048727821E0,5.631057739E0,-1.268388367E1,2.255340576E0
5.051199745E0,5.647216797E0,-1.275570679E1,2.160156250E0
5.053702186E0,5.652603149E0,-1.281796265E1,2.168548584E0
5.056174110E0,5.710067749E0,-1.287301636E1,2.223007202E0
5.058646034E0,5.658584595E0,-1.301786804E1,2.167938232E0
5.061148475E0,5.646026611E0,-1.299452209E1,2.107498169E0
5.063620399E0,5.644226074E0,-1.307054138E1,2.097320557E0
5.066122840E0,5.619079590E0,-1.308430481E1,2.097320557E0
5.068594764E0,5.578979492E0,-1.296939087E1,2.017105103E0
5.071066688E0,5.597534180E0,-1.328182983E1,2.042251587E0
5.073569130E0,5.673553467E0,-1.341052246E1,2.046432495E0
5.076041053E0,5.700485229E0,-1.345959473E1,2.046432495E0
5.078512977E0,5.672958374E0,-1.345840454E1,2.036865234E0
5.081015419E0,5.635238647E0,-1.351646423E1,2.003341675E0
5.083487342E0,5.598739624E0,-1.356794739E1,2.028488159E0
5.085989784E0,5.665771484E0,-1.360444641E1,1.979400635E0
5.088461708E0,5.604721069E0,-1.361822510E1,1.949478149E0
5.090933631E0,5.672348022E0,-1.363977051E1,2.010528564E0
5.093436073E0,5.692108154E0,-1.363977051E1,2.059005737E0
5.095907997E0,5.734603882E0,-1.358410645E1,2.026687622E0
5.098379921E0,5.764526367E0,-1.356973267E1,2.035659790E0
5.100882362E0,5.841140747E0,-1.348474121E1,2.105102539E0
5.103354286E0,5.884246826E0,-1.339854431E1,2.136825562E0
5.105856727E0,5.969238281E0,-1.334707642E1,2.245758057E0
5.108328651E0,6.024307251E0,-1.331834412E1,2.319976807E0
5.110800575E0,6.069198608E0,-1.328901672E1,2.323562622E0
5.113303016E0,6.106903076E0,-1.322557068E1,2.354095459E0
5.115774940E0,6.134429932E0,-1.322856140E1,2.377441406E0
5.118246864E0,6.176330566E0,-1.314176941E1,2.423522949E0
5.120749305E0,6.197875977E0,-1.302505493E1,2.419342041E0
5.123221229E0,6.226013184E0,-1.267311096E1,2.483978271E0
5.125723671E0,6.223022461E0,-1.246540833E1,2.403167725E0
5.128195594E0,6.249359131E0,-1.260845947E1,2.401977539E0
5.130667518E0,6.286468506E0,-1.254740906E1,2.487564087E0
5.133169960E0,6.379241943E0,-1.265574646E1,2.445678711E0
5.135641883E0,6.449874878E0,-1.267489624E1,2.515106201E0
5.138113807E0,6.543838501E0,-1.265394592E1,2.479797363E0
5.140616249E0,6.638412476E0,-1.266711426E1,2.515701294E0
5.143088172E0,6.769500732E0,-1.260366821E1,2.549224854E0
5.145590614E0,6.896987915E0,-1.257614136E1,2.588729858E0
5.148062538E0,7.046035767E0,-1.251449585E1,2.549819946E0
5.150534462E0,7.154968262E0,-1.246780396E1,2.556411743E0
5.153036903E0,7.267486572E0,-1.239178467E1,2.551010132E0
5.155508827E0,7.333328247E0,-1.229841614E1,2.598297119E0
5.158011268E0,7.437484741E0,-1.212243652E1,2.612670898E0
5.160483192E0,7.407546997E0,-1.222360229E1,2.671920776E0
5.162955116E0,7.531448364E0,-1.209730530E1,2.748535156E0
5.165457557E0,7.814559937E0,-1.205120850E1,2.759307861E0
5.167929481E0,7.863052368E0,-1.201469421E1,2.764099121E0
5.170401405E0,7.939666748E0,-1.195065308E1,2.867645264E0
5.172903846E0,8.093490601E0,-1.184651184E1,2.974792480E0
5.175375770E0,8.165313721E0,-1.176570129E1,3.031646729E0
5.177847694E0,8.205413818E0,-1.163401794E1,3.037033081E0
5.180350135E0,8.241333008E0,-1.156100464E1,3.020278931E0
5.182822059E0,8.361038208E0,-1.145027161E1,3.013092041E0
