"Time (s)","Linear Acceleration x (m/s^2)","Linear Acceleration y (m/s^2)","Linear Acceleration z (m/s^2)","Absolute acceleration (m/s^2)"
0.000000000E0,4.022145271E-2,9.824228287E-2,1.445221901E-1,1.793208712E-1
4.943848000E-3,1.060817242E-1,1.802983284E-1,3.315610886E-1,3.920377212E-1
9.918213000E-3,4.497361183E-2,1.608681679E-1,3.514008522E-1,3.890806499E-1
1.489257800E-2,2.890825272E-2,1.194553375E-1,3.948712349E-1,4.135559900E-1
1.983642600E-2,3.347325325E-2,1.232852936E-1,4.507884979E-1,4.685402781E-1
2.481079100E-2,1.164808273E-1,1.288852692E-1,5.465154648E-1,5.734617241E-1
2.978515700E-2,1.162927151E-1,8.339691162E-2,5.204520226E-1,5.397678651E-1
3.475952200E-2,4.589533806E-2,1.188755035E-3,4.356775284E-1,4.380898355E-1
3.973388700E-2,-1.431655884E-1,-4.585075378E-2,2.624115944E-1,3.024211008E-1
4.467773500E-2,-1.995146275E-1,2.728080750E-2,1.169791222E-1,2.328828977E-1
4.965210000E-2,-2.055687904E-1,1.098718643E-1,-4.872417450E-2,2.381268556E-1
5.462646500E-2,-4.854400158E-1,5.581235886E-2,-1.830482483E-1,5.217985143E-1
5.957031300E-2,-4.513425827E-1,1.285033226E-1,-1.965069771E-1,5.087614597E-1
6.454467800E-2,-4.947313070E-1,8.864831924E-2,-2.020144463E-1,5.416894195E-1
6.951904300E-2,-3.842080832E-1,3.704881668E-2,-1.330909729E-1,4.082911621E-1
7.449340900E-2,-2.086002827E-1,9.394645691E-2,-7.977485657E-2,2.422891711E-1
7.946777400E-2,-2.595227957E-1,1.703925133E-1,-3.951549530E-2,3.129651169E-1
8.441162100E-2,-2.515479326E-1,1.160397530E-1,-5.203437805E-2,2.818672794E-1
8.938598700E-2,-4.276406765E-2,-1.374397278E-1,5.458450317E-2,1.539412623E-1
9.432983400E-2,1.895270348E-1,-2.476253510E-1,3.059349060E-1,4.368466299E-1
9.930420000E-2,4.233330488E-1,-1.872534752E-1,6.204395294E-1,7.740929814E-1
1.042785650E-1,5.321639776E-1,6.542015076E-2,3.056516647E-1,6.171719658E-1
1.092529300E-1,5.273650885E-1,1.493749619E-1,1.537485123E-1,5.692674422E-1
1.142272950E-1,5.337054729E-1,8.454513550E-2,2.388238907E-1,5.907844468E-1
1.191711430E-1,5.486279726E-1,9.112071991E-2,2.629251480E-1,6.151628007E-1
1.241455080E-1,5.516364574E-1,1.166448593E-1,2.411365509E-1,6.132337569E-1
1.291198730E-1,5.311563015E-1,1.228690147E-1,2.223758698E-1,5.887909976E-1
1.340637210E-1,5.177979469E-1,1.485776901E-1,2.024307251E-1,5.754721907E-1
1.390380860E-1,5.173385143E-1,1.298570633E-1,1.605081558E-1,5.570142398E-1
1.440124510E-1,4.990240335E-1,1.621470451E-1,7.266044617E-2,5.297133100E-1
1.489868170E-1,4.912486076E-1,1.814999580E-1,3.228092194E-2,5.246994256E-1
1.539611820E-1,4.729301929E-1,1.568570137E-1,4.431343079E-2,5.002307171E-1
1.589355470E-1,4.521359205E-1,1.015739441E-1,3.639793396E-2,4.648321916E-1
1.638793950E-1,4.173160791E-1,6.232261658E-2,2.721118927E-2,4.228206088E-1
1.688232420E-1,3.954924345E-1,2.059984207E-2,1.001272202E-1,4.084899992E-1
1.737976080E-1,3.592578769E-1,-4.926729202E-2,1.831884384E-1,4.062652977E-1
1.787719730E-1,3.099525571E-1,-4.308366776E-2,2.642440796E-1,4.095750525E-1
1.837463380E-1,2.334233522E-1,8.702278137E-3,2.827968597E-1,3.667918414E-1
1.886901860E-1,2.086989880E-1,-3.312587738E-2,2.879428864E-1,3.571606041E-1
1.936645510E-1,1.289007068E-1,-3.475379944E-2,3.494319916E-1,3.740667528E-1
1.986389160E-1,1.006107330E-1,-8.856296539E-2,3.638257980E-1,3.877307439E-1
2.036132820E-1,6.356066465E-2,-1.384210587E-1,3.871526718E-1,4.160379056E-1
2.085571290E-1,9.281635284E-3,-1.687297821E-1,3.905916214E-1,4.255792556E-1
2.135314940E-1,-7.153242826E-3,-1.592984200E-1,3.410072327E-1,3.764479887E-1
2.185058600E-1,-1.930892467E-3,-1.459465027E-1,2.551879883E-1,2.939813248E-1
2.234802250E-1,3.682732582E-3,-1.877632141E-1,2.186689377E-1,2.882441524E-1
2.284240730E-1,-7.119014859E-3,-2.648348808E-1,2.186326981E-1,3.434944703E-1
2.333984380E-1,-5.020393431E-2,-3.753733635E-1,2.508392334E-1,4.542531431E-1
2.383728030E-1,-8.631899208E-2,-4.279141426E-1,3.100481033E-1,5.354356247E-1
2.433471680E-1,-1.507675201E-1,-4.888734818E-1,3.136320114E-1,6.000776324E-1
2.482910160E-1,-1.806931347E-1,-5.148391724E-1,3.490638733E-1,6.477306307E-1
2.532653810E-1,-2.767855525E-1,-5.252084732E-1,3.375558853E-1,6.829334946E-1
2.582397460E-1,-3.284668326E-1,-5.243992805E-1,3.339815140E-1,7.031562538E-1
2.631835940E-1,-4.320904315E-1,-5.602240562E-1,3.305406570E-1,7.809034896E-1
2.681579590E-1,-5.309923887E-1,-5.633640289E-1,3.389692307E-1,8.451225268E-1
2.731323250E-1,-6.027993560E-1,-5.727071762E-1,2.961683273E-1,8.826529620E-1
2.781066900E-1,-6.601958871E-1,-5.869235992E-1,1.828861237E-1,9.021004683E-1
2.830505370E-1,-6.572628021E-1,-5.710444450E-1,1.213645935E-1,8.790992628E-1
2.880249030E-1,-6.848435402E-1,-5.647897720E-1,8.591842651E-2,8.918408699E-1
2.929992680E-1,-7.123845816E-1,-6.003766060E-1,4.896450043E-2,9.329208881E-1
2.979736330E-1,-6.930384040E-1,-6.371517181E-1,5.001640320E-2,9.427439641E-1
3.029174810E-1,-6.804633141E-1,-6.230459213E-1,4.704475403E-3,9.226259664E-1
3.078918460E-1,-6.735999584E-1,-6.424269676E-1,-7.865428925E-2,9.341497792E-1
3.128662110E-1,-6.550058722E-1,-6.647806168E-1,-1.434631348E-1,9.442180003E-1
3.178405760E-1,-6.304975748E-1,-6.379218102E-1,-1.299781799E-1,9.062923121E-1
3.227844240E-1,-5.881293416E-1,-6.788544655E-1,-1.159830093E-1,9.056442824E-1
3.277587890E-1,-6.180137992E-1,-7.446622849E-1,-9.855079651E-2,9.727153921E-1
3.327331550E-1,-6.881141067E-1,-7.732315063E-1,-8.175468445E-2,1.038302371E0
3.377075200E-1,-7.035930157E-1,-7.669715881E-1,-6.908512115E-2,1.043101770E0
3.426513670E-1,-7.610875964E-1,-7.316942215E-1,-9.117126465E-2,1.059690031E0
3.476257330E-1,-8.340288401E-1,-7.284445763E-1,-1.317119598E-1,1.115160817E0
3.526000980E-1,-8.622233868E-1,-6.966328621E-1,-1.502590179E-1,1.118617131E0
3.575744630E-1,-8.741228580E-1,-7.009329796E-1,-1.554479599E-1,1.131177210E0
3.625183110E-1,-9.317768216E-1,-6.847805977E-1,-1.469202042E-1,1.165640622E0
3.674926760E-1,-9.568175077E-1,-6.780972481E-1,-1.583833694E-1,1.183385361E0
3.724670410E-1,-9.432630539E-1,-6.447682381E-1,-1.771812439E-1,1.156228551E0
3.774108890E-1,-9.785465002E-1,-6.711640358E-1,-1.478290558E-1,1.195770817E0
3.823852540E-1,-1.035926700E0,-6.663160324E-1,-1.227960587E-1,1.237820687E0
3.873596190E-1,-1.090237975E0,-6.537814140E-1,-1.197023392E-1,1.276862416E0
3.923339850E-1,-1.160150170E0,-6.507878304E-1,-1.454353333E-1,1.338142240E0
3.972778320E-1,-1.209781408E0,-6.305322647E-1,-1.607046127E-1,1.373669525E0
4.022521980E-1,-1.250532269E0,-5.960183144E-1,-2.006063461E-1,1.399754155E0
4.072265630E-1,-1.265738010E0,-5.764698982E-1,-1.914377213E-1,1.403943965E0
4.122009280E-1,-1.296798348E0,-6.089978218E-1,-1.692399979E-1,1.442638721E0
4.171447760E-1,-1.322367787E0,-6.397800446E-1,-1.115779877E-1,1.473236138E0
4.221191410E-1,-1.354117632E0,-6.523447037E-1,-9.570217133E-2,1.506103276E0
4.270935060E-1,-1.367174268E0,-6.428451538E-1,-1.299867630E-1,1.516348221E0
4.320678710E-1,-1.415262699E0,-6.418056488E-1,-1.150236130E-1,1.558240492E0
4.370117190E-1,-1.485651731E0,-6.946768761E-1,-1.461954117E-1,1.646544906E0
4.419860840E-1,-1.491788149E0,-6.692676544E-1,-1.887950897E-1,1.645902385E0
4.469604500E-1,-1.511389017E0,-6.209621429E-1,-2.202844620E-1,1.648761956E0
4.519348150E-1,-1.519101143E0,-6.198987961E-1,-2.929573059E-1,1.666663368E0
4.568786620E-1,-1.531556129E0,-6.333174706E-1,-3.379440308E-1,1.691437662E0
4.618530280E-1,-1.532541394E0,-6.237120628E-1,-3.519954681E-1,1.691626635E0
4.668273930E-1,-1.482307076E0,-6.060199738E-1,-3.924274445E-1,1.648785546E0
4.717712410E-1,-1.435878277E0,-5.921263695E-1,-4.323806763E-1,1.612238541E0
4.767456060E-1,-1.357886076E0,-5.799880028E-1,-5.110263824E-1,1.562494366E0
4.817199710E-1,-1.311697364E0,-5.421471596E-1,-5.077114105E-1,1.507396561E0
4.866943360E-1,-1.281568766E0,-5.478363037E-1,-5.286216736E-1,1.490632078E0
4.916381840E-1,-1.247754216E0,-5.236215591E-1,-4.947614670E-1,1.440784172E0
4.966125490E-1,-1.178711534E0,-4.873900414E-1,-4.843511581E-1,1.364370176E0
5.015869140E-1,-1.174253106E0,-4.990863800E-1,-4.918346405E-1,1.367427836E0
5.065612800E-1,-1.090800762E0,-5.125808716E-1,-4.879817963E-1,1.300273697E0
5.115356450E-1,-1.012841940E0,-5.171346664E-1,-4.147396088E-1,1.210489984E0
5.164794920E-1,-9.395856857E-1,-5.964655876E-1,-3.140544891E-1,1.156383449E0
5.214538580E-1,-8.909261227E-1,-6.383585930E-1,-2.685928345E-1,1.128447234E0
5.264282230E-1,-8.399616480E-1,-7.667751312E-1,2.492570877E-1,1.164306131E0
5.313720710E-1,-5.321950912E-1,-7.951588631E-1,1.316314697E0,1.627327138E0
5.363464360E-1,-1.031756401E-1,-5.631499290E-1,1.717716217E0,1.810616486E0
5.413208010E-1,1.388977766E-1,-3.144874573E-1,1.821228027E0,1.853393234E0
5.462951660E-1,2.131043673E-1,-8.615016937E-2,1.878985405E0,1.892992730E0
5.512390140E-1,1.573463678E-1,-4.313859940E-1,1.588492393E0,1.653529510E0
5.562133790E-1,-3.543972969E-3,-9.330110550E-1,1.436853409E0,1.713204572E0
5.611877440E-1,-1.650148630E-1,-8.050947189E-1,1.314759254E0,1.550483573E0
5.661621100E-1,-1.023072004E-1,-6.231112480E-1,9.599876404E-1,1.149047719E0
5.711059570E-1,-5.673456192E-2,-6.533851624E-1,8.518514633E-1,1.075072973E0
5.760803230E-1,-1.359610558E-1,-7.626652718E-1,6.389398575E-1,1.004185176E0
5.810546880E-1,-2.337013483E-1,-7.817730904E-1,3.938703537E-1,9.060459925E-1
5.860290530E-1,-2.562332153E-1,-7.346863747E-1,2.850894928E-1,8.286709532E-1
5.909729010E-1,-2.606120110E-1,-5.857157707E-1,1.437578201E-1,6.569991592E-1
5.959472660E-1,-2.219254971E-1,-5.789990425E-1,3.353786469E-2,6.209795535E-1
6.009216310E-1,-2.802755833E-1,-7.838521004E-1,-1.034755707E-1,8.388597687E-1
6.058654790E-1,-3.773514032E-1,-7.316112518E-1,-2.504425049E-1,8.604478796E-1
6.108398440E-1,-3.751993179E-1,-6.246151924E-1,-3.520259857E-1,8.092224425E-1
6.158142090E-1,-2.858982086E-1,-5.347952843E-1,-4.145507812E-1,7.345720741E-1
6.207885750E-1,-3.607263565E-1,-5.155334473E-1,-4.448280334E-1,7.705648700E-1
6.257324220E-1,-3.551766872E-1,-4.882755280E-1,-3.957519531E-1,7.219301066E-1
6.307067870E-1,-1.851921082E-1,-2.663459778E-1,-2.411594391E-1,4.042204496E-1
6.356811530E-1,6.116616726E-2,-3.479337692E-2,-1.083774567E-1,1.292190087E-1
6.406555180E-1,2.865276337E-1,2.684354782E-2,7.176685333E-2,2.965959240E-1
6.455993660E-1,4.647959471E-1,6.503582001E-3,1.266450882E-1,4.817847521E-1
6.505737310E-1,6.189662218E-1,1.548433304E-2,1.303901672E-1,6.327405029E-1
6.555480960E-1,7.805982828E-1,5.710649490E-2,2.219486237E-2,7.829990056E-1
6.605224610E-1,9.879263639E-1,8.980035782E-2,-6.411743164E-2,9.940692380E-1
6.654663090E-1,1.280583501E0,1.756772995E-1,-1.827535629E-1,1.305433063E0
6.704406740E-1,1.592347980E0,3.004317284E-1,-3.386135101E-1,1.655442666E0
6.754150390E-1,1.914290071E0,4.359154701E-1,-4.799385071E-1,2.021106069E0
6.803894050E-1,2.081563234E0,4.178314209E-1,-5.647468567E-1,2.196913200E0
6.853332520E-1,2.198643208E0,3.070788383E-1,-7.592735291E-1,2.346236488E0
6.903076170E-1,2.273865223E0,2.051234245E-1,-9.680213928E-1,2.479839529E0
6.952819830E-1,2.259941339E0,1.175947189E-1,-1.264709473E0,2.592422309E0
7.002258300E-1,2.240653515E0,9.327793121E-2,-1.543251991E0,2.722288680E0
7.052001960E-1,2.227233887E0,1.253147125E-1,-1.693271637E0,2.800614825E0
7.101745610E-1,2.207857609E0,2.566623688E-2,-1.833647728E0,2.870114626E0
7.151489260E-1,2.150869370E0,-2.585778236E-1,-2.000846863E0,2.948981130E0
7.200927740E-1,2.053108931E0,-3.304877281E-1,-2.114627838E0,2.965826919E0
7.250671390E-1,1.874069929E0,-3.944077492E-1,-2.256624222E0,2.959737902E0
7.300415040E-1,1.532511353E0,-3.902339935E-1,-2.409149170E0,2.881817715E0
7.350158690E-1,1.074452400E0,-1.466846466E-1,-2.578474998E0,2.797230356E0
7.399597170E-1,7.410762310E-1,-8.913707733E-2,-2.616070747E0,2.720471568E0
7.449340820E-1,6.051000357E-1,-1.060700417E-1,-2.523186684E0,2.596895829E0
7.499084480E-1,4.301586151E-1,-7.252788544E-2,-2.362672806E0,2.402606817E0
7.548828130E-1,3.704988956E-1,-4.386949539E-2,-2.136300087E0,2.168633677E0
7.598266600E-1,3.200364113E-1,-7.911729813E-2,-2.002009392E0,2.028971280E0
7.648010260E-1,2.343804836E-1,-9.675884247E-2,-1.842383385E0,1.859750795E0
7.697753910E-1,2.576565742E-2,-1.644968987E-1,-1.678013802E0,1.686254256E0
7.747497560E-1,-1.539604664E-1,-1.167879105E-1,-1.455689430E0,1.468460064E0
7.796936040E-1,-3.058271408E-1,3.807020187E-2,-1.153722763E0,1.194175780E0
7.846679690E-1,-3.634632826E-1,1.178846359E-1,-7.685890198E-1,8.583306044E-1
7.896423340E-1,-4.530402422E-1,-2.306604385E-2,-4.178495407E-1,6.167460921E-1
7.946167000E-1,-5.858167410E-1,-2.575221062E-1,-1.114234924E-1,6.495491389E-1
7.995605470E-1,-7.133200169E-1,-3.536710739E-1,1.626768112E-1,8.126330167E-1
8.045349120E-1,-8.494144678E-1,-3.862009048E-1,3.837289810E-1,1.008912290E0
8.095092780E-1,-8.376427889E-1,-3.227882385E-1,4.606027603E-1,1.008956189E0
8.144531250E-1,-8.770668507E-1,-5.714612007E-1,4.959840775E-1,1.158367113E0
8.194274910E-1,-9.447365999E-1,-6.883745193E-1,4.443769455E-1,1.250542919E0
8.244018560E-1,-8.589791059E-1,-6.131114960E-1,5.179624557E-1,1.175600237E0
8.293762210E-1,-6.821506023E-1,-5.537176132E-1,4.752473831E-1,9.988957476E-1
8.343200690E-1,-4.881482124E-1,-5.546712875E-1,4.652557373E-1,8.731619641E-1
8.392944340E-1,-2.977893353E-1,-5.305895805E-1,4.484109879E-1,7.558281585E-1
8.442687990E-1,-1.012545824E-1,-4.810385704E-1,4.545736313E-1,6.695429657E-1
8.492431640E-1,1.043629646E-1,-4.202022552E-1,4.002943039E-1,5.896584549E-1
8.541870120E-1,3.181717396E-1,-2.632775307E-1,2.477855682E-1,4.816077261E-1
8.591613770E-1,3.717892170E-1,-3.201122284E-1,2.519330978E-1,5.515154997E-1
8.641357420E-1,4.864562750E-1,-3.659219742E-1,5.289754868E-1,8.064450783E-1
8.691101080E-1,6.146436930E-1,-1.037316322E-1,5.799837112E-1,8.514271702E-1
8.740539550E-1,4.950407743E-1,-5.104417801E-1,9.155015945E-1,1.159206344E0
8.790283210E-1,5.821876526E-1,-6.852946281E-1,1.216303825E0,1.512602455E0
8.840026860E-1,3.871868849E-1,-3.393540382E-1,3.428125381E-1,6.185428711E-1
8.889770510E-1,5.599880219E-1,5.856466293E-2,3.391122818E-1,6.572773722E-1
8.939208990E-1,7.742347717E-1,3.241229057E-1,-7.843370438E-1,1.148773145E0
8.988952640E-1,1.338475585E0,8.914217949E-1,-4.384848595E0,4.670443973E0
9.038696290E-1,1.260752678E0,4.079432487E-1,-3.196805954E0,3.460561127E0
9.088439940E-1,9.488896132E-1,1.239540577E0,-1.945042610E0,2.494001422E0
9.137878420E-1,6.014856100E-1,1.707103729E0,-1.281260490E0,2.217569960E0
9.187622070E-1,3.616554737E-1,9.315338135E-1,-1.233901024E0,1.587785144E0
9.237365730E-1,1.236145496E-1,7.436618805E-1,-1.037513733E0,1.282477405E0
9.287109380E-1,-4.541814327E-2,8.793172836E-1,-8.442382812E-1,1.219836042E0
9.336547850E-1,-1.243815422E-1,8.458404541E-1,-7.237005234E-1,1.120115748E0
9.386291510E-1,-1.329303980E-1,7.165875435E-1,-6.048917770E-1,9.471337076E-1
9.436035160E-1,-4.711282253E-2,3.205823898E-1,-4.107551575E-1,5.231753875E-1
9.485473640E-1,5.315148830E-2,3.223290443E-1,-2.673854828E-1,4.221564757E-1
9.535217290E-1,6.209146976E-2,3.821520805E-1,-1.824264526E-1,4.279894554E-1
9.584960940E-1,-1.062548161E-2,2.579765320E-1,-1.986217499E-1,3.257535747E-1
9.634704590E-1,-4.101049900E-2,2.004146576E-3,-2.186336517E-1,2.224557289E-1
9.684448250E-1,-7.022523880E-2,-2.261495590E-1,-2.257699966E-1,3.271808347E-1
9.733886720E-1,-7.673227787E-2,-3.010764122E-1,-2.610006332E-1,4.057784851E-1
9.783630370E-1,5.269646645E-3,-3.508377075E-1,-2.723360062E-1,4.441641211E-1
9.833374030E-1,4.489815235E-2,-3.450021744E-1,-2.172956467E-1,4.101947616E-1
9.882812500E-1,9.737145901E-2,-3.193616867E-1,-1.666803360E-1,3.731694285E-1
9.932556160E-1,9.851276875E-2,-2.365040779E-1,-1.458940506E-1,2.948287952E-1
9.982299810E-1,1.461924314E-1,-1.112952232E-1,-1.576423645E-1,2.420949583E-1
1.003204346E0,1.633280516E-1,-4.959106445E-2,-1.969699860E-1,2.606386416E-1
1.008148194E0,2.219038010E-1,3.818798065E-2,-2.953596115E-1,3.713985984E-1
1.013122559E0,2.852959633E-1,1.218628883E-1,-3.879423141E-1,4.967329155E-1
1.018096924E0,3.358091116E-1,1.106615067E-1,-4.804134369E-1,5.964987836E-1
1.023040772E0,3.644407988E-1,-4.189968109E-2,-5.496139526E-1,6.607935956E-1
1.028015137E0,4.104882479E-1,-2.191448212E-1,-6.356668472E-1,7.877800422E-1
1.032989502E0,4.035992622E-1,-4.837427139E-1,-6.930818558E-1,9.366225689E-1
1.037963867E0,4.074040651E-1,-7.709569931E-1,-7.947330475E-1,1.179810737E0
1.042907715E0,4.318647385E-1,-9.372854233E-1,-9.351215363E-1,1.392646188E0
1.047882080E0,4.729449749E-1,-9.414463043E-1,-1.009491920E0,1.459134000E0
1.052856446E0,5.466817617E-1,-8.719372749E-1,-1.033658028E0,1.458624173E0
1.057830811E0,5.969669819E-1,-7.695250511E-1,-8.911056519E-1,1.320078658E0
1.062774659E0,6.548445225E-1,-6.551923752E-1,-6.948976517E-1,1.158007402E0
1.067749024E0,6.448291540E-1,-6.736392975E-1,-4.806118011E-1,1.049086386E0
1.072723389E0,5.757622719E-1,-6.983542442E-1,-4.473857880E-1,1.009631065E0
1.077697754E0,5.038051605E-1,-3.065350056E-1,-4.267873764E-1,7.279634703E-1
1.082672119E0,5.841131210E-1,-1.866164207E-1,-1.540594101E-1,6.322563788E-1
1.087615967E0,6.108605862E-1,-5.933096409E-1,7.044696808E-2,8.544763080E-1
1.092590332E0,5.478510857E-1,-9.951322079E-1,7.854366302E-2,1.138682585E0
1.097564698E0,5.889556408E-1,-8.610653877E-1,1.497459412E-2,1.043324776E0
1.102508545E0,8.027367592E-1,-4.892790318E-1,9.910964966E-2,9.453057696E-1
1.107482910E0,1.079700470E0,-1.476981640E-1,2.935895920E-1,1.128610961E0
1.112457276E0,1.244567633E0,-9.497380257E-2,4.005298615E-1,1.310874817E0
1.117431641E0,1.297469378E0,-4.431042671E-1,4.449605942E-1,1.441443064E0
1.122375489E0,1.309638262E0,-8.644640446E-1,3.599748611E-1,1.609978994E0
1.127349854E0,1.342665195E0,-1.012683392E0,2.626800537E-1,1.702139327E0
1.132324219E0,1.450325966E0,-8.614339828E-1,1.597490311E-1,1.694412484E0
1.137268067E0,1.520506620E0,-6.619596481E-1,-2.694416046E-2,1.658570754E0
1.142242432E0,1.581769228E0,-5.094895363E-1,-2.211561203E-1,1.676449673E0
1.147216797E0,1.623729467E0,-4.401607513E-1,-3.871984482E-1,1.726314429E0
1.152191162E0,1.634892225E0,-4.247105122E-1,-5.129585266E-1,1.765326615E0
1.157135010E0,1.687698126E0,-4.207792282E-1,-5.684127808E-1,1.829883388E0
1.162109375E0,1.734636307E0,-4.176645279E-1,-5.008583069E-1,1.853177223E0
1.167083741E0,1.869469643E0,-3.624246120E-1,-3.382558823E-1,1.934085155E0
1.172058106E0,2.025061846E0,-2.472298145E-1,-1.439867020E-1,2.045172421E0
1.177032471E0,2.106026173E0,-8.267235756E-2,8.206176758E-2,2.109245147E0
1.181976319E0,2.153148890E0,8.980107307E-2,2.169399261E-1,2.165912580E0
1.186950684E0,2.083258390E0,-7.085919380E-2,2.623014450E-1,2.100901853E0
1.191925049E0,1.950866461E0,-2.526388168E-1,3.440332413E-1,1.997014069E0
1.196899414E0,1.807622194E0,-3.383874893E-2,1.837701797E-1,1.817254670E0
1.201873780E0,1.563655853E0,7.916617393E-2,-5.966091156E-2,1.566794924E0
1.206817627E0,1.273075342E0,4.510402679E-2,-3.010721207E-1,1.308968916E0
1.211791992E0,9.761960506E-1,9.429454803E-3,-5.552349091E-1,1.123091024E0
1.216735840E0,6.362085342E-1,-9.070277214E-2,-7.920308113E-1,1.019951517E0
1.221710205E0,3.585135937E-1,-1.419544220E-1,-9.308419228E-1,1.007546396E0
1.226684571E0,-3.087031841E-1,-1.216611862E-1,-8.805828094E-1,9.410234771E-1
1.231658936E0,-2.470681190E0,3.036165237E-2,6.485271454E-2,2.471718683E0
1.236602784E0,-3.277938843E0,-2.497930527E-1,6.343302727E-1,3.348082215E0
1.241577149E0,-2.886403084E0,-4.943287373E-1,4.514589310E-1,2.963021908E0
1.246551514E0,-2.191021919E0,-4.930675030E-1,1.967587471E-1,2.254419353E0
1.251495362E0,-1.453764915E0,-5.499877930E-1,-1.490159035E-1,1.561449564E0
1.256469727E0,-1.150987148E0,-4.673199654E-1,-2.262816429E-1,1.262680778E0
1.261444092E0,-1.278977871E0,-4.682381153E-1,-1.389222145E-1,1.369061981E0
1.266418457E0,-1.555436611E0,-2.547080517E-1,5.673170090E-2,1.577173969E0
1.271362305E0,-1.576595783E0,3.257553577E-1,6.979227066E-2,1.611409873E0
1.276336670E0,-1.869883537E0,4.614408016E-1,3.530836105E-2,1.926301829E0
1.281311035E0,-1.326982021E0,2.049016953E-1,-2.183346748E-1,1.360344081E0
1.286285401E0,-1.111915588E0,9.467577934E-2,-1.790800095E-1,1.130216541E0
1.291229248E0,-1.017969608E0,-2.853250504E-2,-1.561079025E-1,1.030264968E0
1.296203614E0,-8.765735626E-1,-4.060626030E-2,-7.541942596E-2,8.807486411E-1
1.301177979E0,-8.856997490E-1,7.317328453E-2,3.513145447E-2,8.894113750E-1
1.306152344E0,-1.107366562E0,1.252918243E-1,1.496477127E-1,1.124434605E0
1.311096192E0,-1.345666885E0,4.111433029E-2,1.868371964E-1,1.359197518E0
1.316070557E0,-1.448667049E0,-5.461978912E-2,1.954221725E-1,1.462808725E0
1.321044922E0,-1.356353283E0,-1.284117699E-1,1.283435822E-1,1.368450177E0
1.326019287E0,-1.252827168E0,-1.762125492E-1,8.567142487E-2,1.268056137E0
1.330963135E0,-1.280383587E0,-3.211274147E-1,1.408462524E-1,1.327532528E0
1.335937500E0,-1.596483231E0,-3.928394318E-1,5.738048553E-1,1.741359680E0
1.340911866E0,-1.817147255E0,-1.866803169E-1,5.424079895E-1,1.905539324E0
1.345886231E0,-1.594700813E0,-2.785277367E-2,2.289476395E-1,1.611292488E0
1.350830078E0,-1.582842827E0,-1.549985409E-1,2.825927734E-1,1.615324933E0
1.355804444E0,-1.793566704E0,-3.133070469E-1,4.545841217E-1,1.876616517E0
1.360778809E0,-1.948437691E0,-4.424901009E-1,5.146865845E-1,2.063276328E0
1.365753174E0,-2.458061695E0,-3.830008507E-1,-1.199141502E0,2.761647568E0
1.370697022E0,-4.647626877E0,1.454200745E0,-3.997033119E0,6.300111836E0
1.375671387E0,-4.783529282E0,1.985173225E0,-2.821619987E0,5.897847444E0
1.380645752E0,-3.688636303E0,1.356257915E0,-8.707647324E-1,4.025382532E0
1.385620117E0,-1.682592869E0,6.747474670E-1,2.312393188E-1,1.827532361E0
1.390563965E0,-2.237470150E-1,-4.310846329E-2,5.775451660E-1,6.208699422E-1
1.395538330E0,7.331664562E-1,-5.493214130E-1,4.478950500E-1,1.019753423E0
1.400512696E0,1.471331835E0,-6.755838394E-1,3.162899017E-1,1.649627289E0
1.405456543E0,1.931054115E0,-7.473776340E-1,9.941768646E-2,2.073023685E0
1.410430909E0,2.390449286E0,-5.856889486E-1,2.288808823E-1,2.471773814E0
1.415405274E0,2.189193964E0,-7.941412926E-2,4.582815170E-1,2.238056917E0
1.420379639E0,1.877441406E0,3.562612534E-1,8.439855576E-1,2.089023680E0
1.425323487E0,1.871451378E0,6.871136427E-1,1.170499802E0,2.311822918E0
1.430297852E0,1.918219090E0,7.494803667E-1,1.608968735E0,2.613439436E0
1.435272217E0,1.947021723E0,4.948716164E-1,1.984440804E0,2.823791212E0
1.440246582E0,1.833919287E0,2.145477533E-1,2.271292686E0,2.927125067E0
1.445190430E0,1.525669336E0,1.062462330E-1,2.485379219E0,2.918229780E0
1.450164795E0,1.229755163E0,3.994333744E-2,2.550154686E0,2.831462900E0
1.455139160E0,9.720933437E-1,-6.268620491E-3,2.523949623E0,2.704686020E0
1.460113526E0,7.556600571E-1,1.073224545E-1,2.472309113E0,2.587441319E0
1.465057373E0,7.435817719E-1,4.163944721E-2,2.627176285E0,2.730696418E0
1.470031739E0,8.255953789E-1,-4.001959562E-1,2.964432716E0,3.103163847E0
1.475006104E0,9.454884529E-1,-1.159269571E0,3.196496010E0,3.529226699E0
1.479980469E0,7.630913258E-1,-1.590020180E0,2.711222649E0,3.234377961E0
1.484924317E0,2.312059402E-1,-1.684273601E0,1.929227829E0,2.571410851E0
1.489898682E0,-5.399842262E-1,-1.487767816E0,7.788238525E-1,1.763973535E0
1.494873047E0,-1.364625931E0,-1.053587556E0,-9.288034439E-1,1.958296838E0
1.499816895E0,-1.879762173E0,-4.729225636E-1,-3.858060837E0,4.317614503E0
1.504791260E0,-2.474486828E0,3.516207933E-1,-5.282887459E0,5.844281149E0
1.509765625E0,-3.487544060E0,1.012770891E0,-4.335059166E0,5.655210555E0
1.514739991E0,-4.263517380E0,1.381144881E0,-3.170936584E0,5.489989112E0
1.519683838E0,-4.132699013E0,1.132610917E0,-2.651757240E0,5.039228620E0
1.524658203E0,-3.421736240E0,5.046302080E-1,-2.603872776E0,4.329328352E0
1.529632569E0,-2.830751419E0,4.637444019E-2,-2.796424866E0,3.979358769E0
1.534606934E0,-2.675039291E0,-5.759501457E-2,-2.869874477E0,3.923688560E0
1.539550782E0,-2.696503162E0,-6.622958183E-2,-2.655026913E0,3.784796371E0
1.544525147E0,-2.520634651E0,-1.480854750E-1,-2.351909161E0,3.450652844E0
1.549499512E0,-2.274155140E0,-3.126230240E-1,-2.163129807E0,3.154147320E0
1.554473877E0,-2.159052849E0,-4.835339785E-1,-2.009424686E0,2.988829517E0
1.559417725E0,-2.211065292E0,-5.619572401E-1,-1.879888058E0,2.956109737E0
1.564392090E0,-2.286437511E0,-6.860439777E-1,-1.799658775E0,2.989519115E0
1.569366455E0,-2.308988094E0,-5.588493347E-1,-1.674817562E0,2.906673780E0
1.574340821E0,-2.258523464E0,4.691600800E-3,-1.444540977E0,2.680979091E0
1.579284668E0,-2.175742626E0,7.209480405E-1,-1.305573463E0,2.637829434E0
1.584259034E0,-2.009795189E0,1.238956451E0,-1.374274254E0,2.731834460E0
1.589233399E0,-1.751964092E0,1.384113193E0,-1.593927383E0,2.743310412E0
1.594177246E0,-1.467118740E0,1.343561172E0,-1.858218193E0,2.722236006E0
1.599151612E0,-1.288183212E0,1.249939680E0,-2.057752609E0,2.730588031E0
1.604125977E0,-1.224691391E0,1.183952570E0,-2.285284042E0,2.850286976E0
1.609100342E0,-1.261343956E0,1.098322153E0,-2.540346146E0,3.041489547E0
1.614044190E0,-1.215190411E0,9.241490960E-1,-2.763398170E0,3.157072811E0
1.619018555E0,-1.097320080E0,8.080233932E-1,-3.085353851E0,3.372895129E0
1.623992920E0,-1.112482548E0,8.544186354E-1,-3.248040199E0,3.537995726E0
1.628967285E0,-1.055976391E0,8.279669285E-1,-3.642258644E0,3.881580014E0
1.633941651E0,-8.180689812E-1,7.726733088E-1,-4.096820831E0,4.248552909E0
1.638916016E0,-5.406751633E-1,6.522328854E-1,-4.430509567E0,4.510781794E0
1.643843960E0,-3.653993607E-1,5.726749897E-1,-4.662535667E0,4.711763172E0
1.648818325E0,-1.545271873E-1,5.306605101E-1,-5.010436058E0,5.040828178E0
1.653792690E0,1.680045128E-1,4.140719771E-1,-5.204215050E0,5.223364376E0
1.658736538E0,4.437212944E-1,4.144607782E-1,-5.340622902E0,5.375027377E0
1.663710903E0,7.295317650E-1,1.943446994E-1,-5.570476532E0,5.621405096E0
1.668685268E0,1.020158768E0,-2.164610624E-1,-5.819893837E0,5.912591951E0
1.673659633E0,1.304847240E0,-5.112159848E-1,-5.928758621E0,6.092138122E0
1.678603481E0,1.884640217E0,-1.116704226E0,-5.859297752E0,6.255419029E0
1.683577846E0,1.917834282E0,-9.759569168E-1,-6.015020370E0,6.388352706E0
1.688552212E0,1.518300533E0,-7.387114167E-1,-6.018977165E0,6.251321235E0
1.693496059E0,1.594092369E0,-1.014384151E0,-5.872474670E0,6.168959754E0
1.698470424E0,1.631165028E0,-1.364436626E0,-5.721454620E0,6.103886436E0
1.703444790E0,1.389835358E0,-1.539899588E0,-5.808960915E0,6.168221783E0
1.708388637E0,9.349603653E-1,-1.453487039E0,-6.090539932E0,6.330991401E0
1.713363003E0,-4.553580284E-1,-9.488427639E-1,-6.516672134E0,6.601111212E0
1.718337368E0,-2.999920368E0,-5.559936762E-1,-7.053980827E0,7.685525141E0
1.723311733E0,-3.396728516E0,-1.382131457E0,-6.336038589E0,7.320753853E0
1.728255581E0,-3.502819538E0,-1.909285426E0,-5.626905918E0,6.897621747E0
1.733229946E0,-3.951356411E0,-2.058153152E0,-5.666275978E0,7.208043795E0
1.738204311E0,-4.203189850E0,-2.141215563E0,-5.914163113E0,7.564980788E0
1.743178676E0,-4.266133308E0,-2.210038662E0,-6.101022243E0,7.765734782E0
1.748122524E0,-4.259157658E0,-2.342411995E0,-6.101120472E0,7.800704386E0
1.753096889E0,-4.216315746E0,-2.565297842E0,-6.070564747E0,7.823670995E0
1.758071255E0,-4.116076946E0,-2.774598837E0,-6.125920773E0,7.884630203E0
1.763045620E0,-3.990569592E0,-2.997163773E0,-6.292020798E0,8.031012518E0
1.767989467E0,-3.785396576E0,-3.229574203E0,-6.324427128E0,8.047220344E0
1.772963833E0,-3.420997620E0,-3.500458241E0,-6.377649307E0,8.039331023E0
1.777938198E0,-3.036739349E0,-3.680198669E0,-6.456798077E0,8.028442534E0
1.782912563E0,-2.731941700E0,-3.838762999E0,-6.600914478E0,8.109974030E0
1.787856411E0,-2.507856846E0,-4.001931190E0,-6.661265373E0,8.165614220E0
1.792830776E0,-2.246562004E0,-4.434792995E0,-6.589911461E0,8.254778181E0
1.797805141E0,-1.946469307E0,-4.851759434E0,-6.477491379E0,8.323833668E0
1.802779506E0,-1.710540295E0,-4.899761200E0,-6.544551373E0,8.352530191E0
1.807723354E0,-1.626605034E0,-4.825307369E0,-6.712203503E0,8.425147536E0
1.812697719E0,-1.782459736E0,-4.818961620E0,-6.993804455E0,8.678297907E0
1.817672085E0,-2.055963039E0,-4.980372429E0,-7.234577656E0,9.020543631E0
1.822615932E0,-2.352818012E0,-5.412547112E0,-7.321097851E0,9.403716955E0
1.827590297E0,-2.558215618E0,-6.135878563E0,-7.459321499E0,9.991744098E0
1.832564663E0,-2.564736843E0,-6.660385132E0,-7.472277641E0,1.033312820E1
1.837539028E0,-2.500695229E0,-7.100407124E0,-7.675807476E0,1.075115242E1
1.842482876E0,-2.289567947E0,-7.473943710E0,-8.083423615E0,1.124471846E1
1.847457241E0,-2.055349827E0,-7.818999767E0,-8.369365692E0,1.163647293E1
1.852431606E0,-1.847873211E0,-8.204872131E0,-8.581878662E0,1.201595620E1
1.857405971E0,-1.701305866E0,-8.642982483E0,-8.575580597E0,1.229374517E1
1.862349819E0,-1.492181301E0,-9.097540855E0,-8.493062019E0,1.253490954E1
1.867324184E0,-1.176687241E0,-9.458460808E0,-8.372459412E0,1.268641598E1
1.872298549E0,-7.952227592E-1,-9.770051956E0,-8.343332291E0,1.287235364E1
1.877272915E0,-4.705018997E-1,-9.983067513E0,-8.274356842E0,1.297489846E1
1.882216762E0,-3.376684189E-1,-1.019518185E1,-8.144675255E0,1.305340905E1
1.887191128E0,-4.609713554E-1,-1.035924721E1,-8.082967758E0,1.314765626E1
1.892165493E0,-8.677101135E-1,-1.055051994E1,-8.029362679E0,1.328672484E1
1.897139858E0,-1.589699745E0,-1.077642441E1,-7.867100716E0,1.343687992E1
1.902083706E0,-2.195731163E0,-1.046106529E1,-7.513100147E0,1.306528975E1
1.907058071E0,-2.554098129E0,-1.047339058E1,-6.772970200E0,1.273139634E1
1.912032436E0,-3.286893845E0,-1.154115772E1,-5.875874996E0,1.336143329E1
1.917006801E0,-4.097267151E0,-1.212996483E1,-5.204434872E0,1.382062904E1
1.921950649E0,-4.268400669E0,-1.217169571E1,-3.746891499E0,1.343162747E1
1.926925014E0,-5.280753136E0,-1.213279533E1,-4.180315018E0,1.387681916E1
1.931899380E0,-5.819148540E0,-1.196122551E1,-3.683113098E0,1.380212764E1
1.936843227E0,-5.777997017E0,-1.200103378E1,-2.783125877E0,1.360719850E1
1.941817592E0,-5.579283237E0,-1.180451775E1,-2.123600721E0,1.322817904E1
1.946791958E0,-5.262477398E0,-1.132682228E1,-1.810085297E0,1.262010222E1
1.951766323E0,-4.753035545E0,-1.117942238E1,-1.583782673E0,1.225068158E1
1.956710171E0,-4.134245396E0,-1.131139374E1,-1.485758781E0,1.213454129E1
1.961684536E0,-3.697432518E0,-1.152120972E1,-1.540782213E0,1.219767561E1
1.966658901E0,-3.487645626E0,-1.182000351E1,-1.790287495E0,1.245316363E1
1.971633266E0,-3.395453453E0,-1.212557030E1,-2.126191139E0,1.277024855E1
1.976577114E0,-3.393177509E0,-1.244544888E1,-2.377182245E0,1.311692978E1
1.981551479E0,-3.422617912E0,-1.267877579E1,-2.468099833E0,1.336252916E1
1.986525844E0,-3.449461937E0,-1.285633087E1,-2.545382977E0,1.355223250E1
1.991500210E0,-3.537080765E0,-1.303460693E1,-2.641218185E0,1.376182952E1
1.996444057E0,-3.762980461E0,-1.328317261E1,-2.807855606E0,1.408853256E1
2.001418422E0,-4.031870842E0,-1.359437943E1,-2.868956327E0,1.446699847E1
2.006392788E0,-4.069226742E0,-1.394298363E1,-2.618680000E0,1.475882393E1
2.011367153E0,-3.809094906E0,-1.410730934E1,-2.252743721E0,1.478513561E1
2.016311001E0,-3.320323467E0,-1.405929279E1,-1.882162333E0,1.456814322E1
2.021285366E0,-2.773964405E0,-1.397826958E1,-1.464106798E0,1.432586848E1
2.026259731E0,-2.339900970E0,-1.394376373E1,-1.005128860E0,1.417441243E1
2.031234096E0,-1.898216248E0,-1.402803421E1,-5.473461151E-1,1.416645886E1
2.036177944E0,-1.464744568E0,-1.403821945E1,1.905849576E-2,1.411444102E1
2.041152309E0,-1.070604324E0,-1.394239616E1,5.503801107E-1,1.399426749E1
2.046126674E0,-6.923465729E-1,-1.377930069E1,9.881948829E-1,1.383202807E1
2.051070522E0,-4.960165024E-1,-1.363753605E1,1.219552994E0,1.370093907E1
2.056044887E0,-4.826154709E-1,-1.362487984E1,1.254576921E0,1.369102741E1
2.061019253E0,-4.925861359E-1,-1.365009689E1,1.424577236E0,1.373306982E1
2.065993618E0,-5.393037796E-1,-1.358233452E1,1.769969940E0,1.370778805E1
2.070937465E0,-5.622615814E-1,-1.338393497E1,2.124744892E0,1.356320000E1
2.075911831E0,-5.761575699E-1,-1.317292404E1,2.405093670E0,1.340307282E1
2.080886196E0,-5.708885193E-1,-1.300559425E1,2.652971745E0,1.328569361E1
2.085860561E0,-5.948085785E-1,-1.288396454E1,2.883937359E0,1.321618077E1
2.090804409E0,-6.520614624E-1,-1.282292175E1,3.129459381E0,1.321537069E1
2.095778774E0,-6.779203415E-1,-1.270112801E1,3.399578333E0,1.316568880E1
2.100753139E0,-6.156673431E-1,-1.261737633E1,3.677281618E0,1.315673332E1
2.105727505E0,-5.193939209E-1,-1.246700859E1,3.919211388E0,1.307884900E1
2.110671352E0,-5.399808884E-1,-1.237326241E1,3.988907337E0,1.301155577E1
2.115645717E0,-6.030597687E-1,-1.239089394E1,4.063168526E0,1.305401364E1
2.120620083E0,-5.972709656E-1,-1.240463638E1,4.245395184E0,1.312459968E1
2.125594448E0,-4.943895340E-1,-1.231704330E1,4.472829819E0,1.311335897E1
2.130538296E0,-3.339910507E-1,-1.214464855E1,4.808708668E0,1.306628170E1
2.135512661E0,-9.205341339E-2,-1.192461014E1,5.112906456E0,1.297484540E1
2.140487026E0,7.832622528E-2,-1.177964020E1,5.423144341E0,1.296829028E1
2.145430874E0,3.472719193E-1,-1.165768528E1,5.669894218E0,1.296803471E1
2.150405239E0,6.905584335E-1,-1.149301338E1,5.935133934E0,1.295345677E1
2.155379604E0,1.009450912E0,-1.132184792E1,6.173797131E0,1.293518467E1
2.160353969E0,1.278974533E0,-1.112157059E1,6.439104080E0,1.291461070E1
2.165328335E0,1.496490479E0,-1.093221474E1,6.800838470E0,1.296164367E1
2.170272182E0,1.618197441E0,-1.074423218E1,7.148024082E0,1.300581933E1
2.175246547E0,1.654841423E0,-1.065725899E1,7.467908859E0,1.311812990E1
2.180220913E0,1.563448906E0,-1.068598747E1,7.871432304E0,1.336391212E1
2.185195278E0,1.413710594E0,-1.073220825E1,8.334312439E0,1.366161174E1
2.190139126E0,1.333708763E0,-1.068674469E1,8.822006226E0,1.392167680E1
2.195113491E0,1.293777466E0,-1.052590370E1,9.186851501E0,1.403092119E1
2.200087856E0,1.308277130E0,-1.037424755E1,9.504876137E0,1.413079162E1
2.205031704E0,1.326446533E0,-1.013216591E1,9.797208786E0,1.415646659E1
2.210006069E0,1.431413651E0,-9.996253014E0,1.013501358E1,1.430707935E1
2.214980434E0,1.658464432E0,-9.862955093E0,1.050259018E1,1.450285447E1
2.219954799E0,2.016475677E0,-9.577238083E0,1.075150299E1,1.453906737E1
2.224898647E0,2.318062782E0,-9.286512375E0,1.093149185E1,1.452963321E1
2.229873012E0,2.607130051E0,-9.011142731E0,1.099658966E1,1.445416219E1
2.234847378E0,2.863830566E0,-8.857693672E0,1.107853889E1,1.447046256E1
2.239821743E0,3.073934555E0,-8.795315742E0,1.110961342E1,1.449931595E1
2.244765590E0,3.247855186E0,-8.772062302E0,1.122936249E1,1.461493148E1
2.249739956E0,3.369669914E0,-8.729443550E0,1.140194511E1,1.474999025E1
2.254714321E0,3.506710052E0,-8.505759239E0,1.157486725E1,1.478588879E1
2.259688686E0,3.606902122E0,-8.337219238E0,1.178121948E1,1.487669654E1
2.264632534E0,3.720932961E0,-8.227087021E0,1.205444717E1,1.506120844E1
2.269606899E0,3.825758934E0,-8.127040863E0,1.225968266E1,1.519819211E1
2.274581264E0,3.898251534E0,-7.980576515E0,1.240045643E1,1.525310743E1
2.279555630E0,3.935821533E0,-7.845643997E0,1.252618790E1,1.529543082E1
2.284529995E0,3.992679596E0,-7.825003624E0,1.268374443E1,1.542885429E1
2.289473842E0,4.084779739E0,-7.879240990E0,1.286087990E1,1.562594304E1
2.294448208E0,4.258883476E0,-7.834873199E0,1.299897575E1,1.576377801E1
2.299422573E0,4.403098106E0,-7.716111183E0,1.309196758E1,1.582167058E1
2.304366421E0,4.525671005E0,-7.635354042E0,1.320555687E1,1.591122439E1
2.309340786E0,4.665425301E0,-7.615093231E0,1.333401585E1,1.604842100E1
2.314315151E0,4.759976387E0,-7.680955887E0,1.350564003E1,1.624982373E1
2.319289516E0,4.803261757E0,-7.624189377E0,1.375610161E1,1.644475353E1
2.324263881E0,4.777412415E0,-7.521203041E0,1.424109650E1,1.679883907E1
2.329238247E0,4.718818665E0,-7.463903904E0,1.456761551E1,1.703503838E1
2.334182094E0,4.635196686E0,-7.393903255E0,1.477307129E1,1.715804444E1
2.339156460E0,4.530468941E0,-7.341510773E0,1.498167419E1,1.728795797E1
2.344100307E0,4.303513527E0,-7.223030567E0,1.522464085E1,1.739201219E1
2.349074672E0,4.104703903E0,-7.150308132E0,1.542251492E1,1.748798064E1
2.354049038E0,3.931845665E0,-7.222723007E0,1.556853580E1,1.760699989E1
2.359023403E0,3.777661324E0,-7.402831078E0,1.575833988E1,1.781566470E1
2.363967251E0,3.611115456E0,-7.531214714E0,1.590536118E1,1.796496212E1
2.368941616E0,3.611374855E0,-7.533761501E0,1.614043045E1,1.817451749E1
2.373915981E0,3.638671875E0,-7.528340340E0,1.630985832E1,1.832832016E1
2.378859829E0,3.625129700E0,-7.572695732E0,1.645274162E1,1.847105825E1
2.383834194E0,3.617065430E0,-7.688060284E0,1.658186913E1,1.863190320E1
2.388808559E0,3.512752533E0,-7.816290855E0,1.663549614E1,1.871292508E1
2.393790842E0,3.315318108E0,-8.007801056E0,1.660226250E1,1.872835636E1
2.398765208E0,3.131283760E0,-8.105713844E0,1.658117294E1,1.872011835E1
2.403709055E0,2.859295845E0,-8.219378471E0,1.661679077E1,1.875770484E1
2.408683421E0,2.530910492E0,-8.460168839E0,1.667493248E1,1.886884570E1
2.413627268E0,2.285864830E0,-8.774630547E0,1.684431076E1,1.912982290E1
2.418601633E0,2.115969658E0,-9.086812973E0,1.697978973E1,1.937422920E1
2.423575999E0,1.968108177E0,-9.363148689E0,1.693490791E1,1.945078685E1
2.428550364E0,1.768695831E0,-9.609007835E0,1.687310219E1,1.949776638E1
2.433494212E0,1.507428169E0,-9.973518372E0,1.669746780E1,1.950766105E1
2.438468577E0,1.253183365E0,-1.044505405E1,1.656865501E1,1.962625669E1
2.443442942E0,9.536943436E-1,-1.091516876E1,1.640895081E1,1.973079087E1
2.448417307E0,6.607465744E-1,-1.144894695E1,1.621215630E1,1.985822208E1
2.453361155E0,4.145574570E-1,-1.201946259E1,1.591449738E1,1.994769574E1
2.458335520E0,1.798229218E-1,-1.257856369E1,1.564063644E1,2.007192340E1
2.463309885E0,-4.341220856E-2,-1.315338326E1,1.539204216E1,2.024668708E1
2.468284251E0,-2.739152908E-1,-1.369246674E1,1.510804558E1,2.039146184E1
2.473228098E0,-5.685472488E-1,-1.418175220E1,1.487715721E1,2.056149674E1
2.478202464E0,-7.868318558E-1,-1.458019447E1,1.476857471E1,2.076805177E1
2.483176829E0,-1.063809395E0,-1.503294277E1,1.472414398E1,2.106944410E1
2.488151194E0,-1.467751503E0,-1.557248878E1,1.464955235E1,2.143049429E1
2.493095042E0,-1.876191139E0,-1.628706932E1,1.466664886E1,2.199771145E1
2.498069407E0,-2.374725342E0,-1.683345795E1,1.476109886E1,2.251432136E1
2.503043772E0,-2.988454819E0,-1.681638336E1,1.494224453E1,2.269344141E1
2.507987620E0,-3.655958176E0,-1.679638290E1,1.519282436E1,2.294136920E1
2.512961985E0,-4.439785957E0,-1.680259705E1,1.556557274E1,2.333079556E1
2.517936350E0,-5.298242569E0,-1.680852890E1,1.619312096E1,2.393355770E1
2.522910715E0,-6.193137169E0,-1.682279205E1,1.700683784E1,2.471019656E1
2.527854563E0,-7.027132988E0,-1.684601784E1,1.773454475E1,2.544961675E1
2.532828928E0,-7.733711243E0,-1.687898064E1,1.827061462E1,2.604852463E1
2.537803294E0,-8.355358124E0,-1.692091560E1,1.869038773E1,2.656049675E1
2.542777659E0,-9.028207779E0,-1.697078323E1,1.907126808E1,2.707820684E1
2.547752024E0,-9.856386185E0,-1.702782440E1,1.932069778E1,2.757507054E1
2.552695872E0,-1.079014206E1,-1.709047508E1,1.932103920E1,2.796093811E1
2.557670237E0,-1.092534542E1,-1.715946770E1,1.901041031E1,2.784252511E1
2.562644602E0,-1.084660149E1,-1.723454857E1,1.860138321E1,2.758060705E1
2.567588450E0,-1.077085018E1,-1.731627655E1,1.826780510E1,2.737841030E1
2.572562815E0,-1.069941044E1,-1.740725899E1,1.776019478E1,2.707239494E1
2.577537180E0,-1.061944962E1,-1.751015472E1,1.776775551E1,2.711219955E1
2.582511546E0,-1.053671265E1,-1.762771034E1,1.751400948E1,2.699072087E1
2.587455393E0,-1.045125198E1,-1.776374626E1,1.659462547E1,2.646055449E1
2.592429758E0,-1.036173153E1,-1.792491722E1,1.607223320E1,2.621039522E1
2.597404124E0,-1.026916504E1,-1.811311150E1,1.473024845E1,2.550530882E1
2.602378489E0,-1.017491817E1,-1.833201218E1,1.318905640E1,2.476979691E1
2.607322337E0,-1.008143806E1,-1.858242226E1,1.149571896E1,2.406435880E1
2.612296702E0,-9.990530014E0,-1.886840630E1,9.455575943E0,2.335027543E1
2.617271067E0,-9.905522346E0,-1.918857574E1,7.006085396E0,2.270255591E1
2.622245432E0,-9.829206467E0,-1.954394913E1,4.586145878E0,2.235200173E1
2.627189280E0,-9.765096664E0,-1.993261909E1,2.149246931E0,2.229990312E1
2.632163645E0,-9.716720581E0,-2.035990334E1,-7.052852213E-2,2.255981598E1
2.637138010E0,-9.689548492E0,-2.082161713E1,-2.289394617E0,2.307961043E1
2.642112376E0,-9.689459801E0,-2.131363869E1,-4.673328876E0,2.387460634E1
2.647056223E0,-9.722113609E0,-2.182721138E1,-7.049041748E0,2.491255987E1
2.652030589E0,-9.793784142E0,-2.236252594E1,-8.894505501E0,2.598293675E1
2.657004954E0,-9.908394814E0,-2.290787697E1,-1.087295818E1,2.722440697E1
2.661948801E0,-1.006659412E1,-2.344967270E1,-1.326885986E1,2.876258175E1
2.666923167E0,-1.027034855E1,-2.398521042E1,-1.559683514E1,3.039788882E1
2.671897532E0,-1.051537323E1,-2.450236893E1,-1.740635300E1,3.184211491E1
2.676871897E0,-1.079717064E1,-2.499470139E1,-1.774166107E1,3.249739265E1
2.681815745E0,-1.110867596E1,-2.545471573E1,-1.742734528E1,3.278807097E1
2.686790110E0,-1.144963169E1,-2.588532639E1,-1.710497665E1,3.307150457E1
2.691764475E0,-1.181439495E1,-2.628174019E1,-1.682578659E1,3.336790209E1
2.696738840E0,-1.206843567E1,-2.664263153E1,-1.653750038E1,3.360008740E1
2.701682688E0,-1.059034538E1,-2.696506119E1,-1.625706100E1,3.321990326E1
2.706657053E0,-8.206901550E0,-2.725230217E1,-1.598106956E1,3.264101394E1
2.711631419E0,-6.104666233E0,-2.750109100E1,-1.571137333E1,3.225560739E1
2.716605784E0,-3.968302250E0,-2.771108627E1,-1.544937801E1,3.197397389E1
2.721549631E0,-1.801703453E0,-2.788113022E1,-1.519934273E1,3.180603051E1
2.726523997E0,3.481645584E-1,-2.801504898E1,-1.496094322E1,3.176151775E1
2.731498362E0,2.503569126E0,-2.811316872E1,-1.473616505E1,3.183979701E1
2.736442210E0,4.454423428E0,-2.817691231E1,-1.452566147E1,3.201210890E1
2.741416575E0,6.012391567E0,-2.821016502E1,-1.432609177E1,3.220557667E1
2.746390940E0,7.006680489E0,-2.821537209E1,-1.413746643E1,3.232752311E1
2.751365305E0,7.545388699E0,-2.819615173E1,-1.395921230E1,3.235452783E1
2.756339671E0,7.585608482E0,-2.815639496E1,-1.375647545E1,3.224228047E1
2.761283518E0,7.339963913E0,-2.810005379E1,-1.316191578E1,3.188611171E1
2.766257883E0,6.982714653E0,-2.803079033E1,-1.241863060E1,3.144369406E1
2.771232249E0,6.732168198E0,-2.795160484E1,-1.158978653E1,3.099899117E1
2.776176096E0,6.090728760E0,-2.786513138E1,-1.090076637E1,3.053504922E1
2.781150462E0,5.727418423E0,-2.777339745E1,-1.004478836E1,3.008426002E1
2.786124827E0,5.103921890E0,-2.767791367E1,-9.091629028E0,2.957658942E1
2.791099192E0,4.532594204E0,-2.757927704E1,-8.364963531E0,2.917419317E1
2.796043040E0,4.152916431E0,-2.747891235E1,-7.706413269E0,2.883966270E1
2.801017405E0,3.807486534E0,-2.737682724E1,-6.951801300E0,2.850114322E1
2.805991770E0,3.581353664E0,-2.727354813E1,-6.241904259E0,2.820698300E1
2.810966135E0,3.415505409E0,-2.707220459E1,-5.590779305E0,2.785366676E1
2.815909983E0,3.372950077E0,-2.597818947E1,-5.142174244E0,2.669616220E1
2.820884348E0,3.368472576E0,-2.461985970E1,-4.710134506E0,2.529168769E1
2.825858714E0,3.444730043E0,-2.347614479E1,-4.288691998E0,2.411199739E1
2.830833079E0,3.630363464E0,-2.227938843E1,-3.906600475E0,2.290878030E1
2.835776926E0,3.913192987E0,-2.109205627E1,-3.591122150E0,2.175049598E1
2.840751292E0,4.321110725E0,-1.991998291E1,-3.344361782E0,2.065580966E1
2.845725657E0,4.733768940E0,-1.871437645E1,-3.119531631E0,1.955423054E1
2.850700022E0,5.090959549E0,-1.743223190E1,-3.041091442E0,1.841327824E1
2.855643870E0,5.400703430E0,-1.611151314E1,-3.075117588E0,1.726860739E1
2.860618235E0,5.561008930E0,-1.491774178E1,-3.183069229E0,1.623563272E1
2.865592600E0,5.649775505E0,-1.388413429E1,-3.225702286E0,1.533278525E1
2.870566965E0,5.769250870E0,-1.275772476E1,-3.346282005E0,1.439588135E1
2.875510813E0,5.757073402E0,-1.176200485E1,-3.402318954E0,1.353013032E1
2.880485178E0,5.636679173E0,-1.094081116E1,-3.479681015E0,1.278990543E1
2.885459544E0,5.349271774E0,-1.020471478E1,-3.578121185E0,1.206457058E1
2.890433909E0,4.356110573E0,-9.663427353E0,-3.636070251E0,1.120618286E1
2.895377756E0,3.600002289E0,-9.346261024E0,-3.343155861E0,1.055884950E1
2.900352122E0,3.680250168E0,-8.870445251E0,-3.256980896E0,1.014085622E1
2.905326487E0,3.485847950E0,-8.269083023E0,-3.212760925E0,9.531563499E0
2.910270335E0,3.174164772E0,-7.737164497E0,-2.831559181E0,8.829312762E0
2.915244700E0,3.103875399E0,-7.339137077E0,-2.545281410E0,8.365131977E0
2.920219065E0,3.102077961E0,-6.983194828E0,-2.419386864E0,8.015068963E0
2.925193430E0,3.027656078E0,-6.522766113E0,-2.296560287E0,7.548997831E0
2.930137278E0,2.923049688E0,-6.047665119E0,-2.166169167E0,7.057673960E0
2.935111643E0,2.858276844E0,-5.604526997E0,-2.050210953E0,6.616935418E0
2.940086008E0,2.841167927E0,-5.233992100E0,-1.981663704E0,6.276455968E0
2.945060374E0,2.778732777E0,-4.868233681E0,-1.904926300E0,5.920287090E0
2.950004221E0,2.770430803E0,-4.473958492E0,-1.891242027E0,5.591814360E0
2.954978587E0,2.727235317E0,-4.140435219E0,-1.819661140E0,5.281305042E0
2.959952952E0,2.683406591E0,-3.957240105E0,-1.825989723E0,5.118071771E0
2.964927317E0,2.596645117E0,-3.816758633E0,-1.893544197E0,4.989561298E0
2.969871165E0,2.510538578E0,-3.659316063E0,-2.004335403E0,4.869369406E0
2.974845530E0,2.429194927E0,-3.507668495E0,-2.121787071E0,4.765155469E0
2.979819895E0,2.375451803E0,-3.363150597E0,-2.206378937E0,4.671366098E0
2.984794260E0,2.322010517E0,-3.265888214E0,-2.227591515E0,4.584748916E0
2.989738108E0,2.236505508E0,-3.141954422E0,-2.169450760E0,4.424969048E0
2.994712473E0,2.148871422E0,-3.039195538E0,-2.129364014E0,4.288187147E0
2.999686839E0,2.098795891E0,-2.967659473E0,-2.120366096E0,4.208075489E0
3.004630686E0,2.052010536E0,-2.900399685E0,-2.028304100E0,4.091098030E0
3.009605051E0,2.032368898E0,-2.853441715E0,-1.895093918E0,3.982967979E0
3.014579417E0,2.016227722E0,-2.826571465E0,-1.738661766E0,3.882991786E0
3.019553782E0,2.006705761E0,-2.846253872E0,-1.565550804E0,3.818242846E0
3.024497630E0,1.972857833E0,-2.789022446E0,-1.480251312E0,3.723165075E0
3.029471995E0,1.933665991E0,-2.768243074E0,-1.455640793E0,3.677108103E0
3.034446360E0,1.833367825E0,-2.788527966E0,-1.475461960E0,3.648851023E0
3.039420725E0,1.746046543E0,-2.801900625E0,-1.510931015E0,3.630735212E0
3.044364573E0,1.691296697E0,-2.754761934E0,-1.537600517E0,3.579582822E0
3.049338938E0,1.619650483E0,-2.679325819E0,-1.586485863E0,3.509842151E0
3.054313303E0,1.521230340E0,-2.640278816E0,-1.670186996E0,3.474872455E0
3.059287669E0,1.470476031E0,-2.614458799E0,-1.697347641E0,3.446546617E0
3.064231516E0,1.443758607E0,-2.569144487E0,-1.703992844E0,3.404193579E0
3.069205881E0,1.379787087E0,-2.550470352E0,-1.711108208E0,3.366987188E0
3.074180247E0,1.302783728E0,-2.553167343E0,-1.681050301E0,3.322926276E0
3.079124094E0,1.264348984E0,-2.600437403E0,-1.622197151E0,3.315475326E0
3.084098460E0,1.204448700E0,-2.559956551E0,-1.619941711E0,3.260105115E0
3.089072825E0,1.150167346E0,-2.530457020E0,-1.503833771E0,3.160318601E0
3.094047190E0,1.023551702E0,-2.529097795E0,-1.412669182E0,3.072397755E0
3.098991038E0,9.051193595E-1,-2.481745005E0,-1.350038528E0,2.966631651E0
3.103965403E0,7.844985127E-1,-2.514976025E0,-1.300847054E0,2.938153396E0
3.108939768E0,6.470144391E-1,-2.617888927E0,-1.270450592E0,2.980941936E0
3.113914133E0,5.742871165E-1,-2.663025856E0,-1.238511086E0,2.992561129E0
3.118857981E0,5.249475241E-1,-2.698836327E0,-1.166193008E0,2.986518634E0
3.123832346E0,4.803658724E-1,-2.715795755E0,-1.067244530E0,2.957246835E0
3.128806712E0,3.855881691E-1,-2.726847649E0,-9.529619217E-1,2.914191613E0
3.133781077E0,3.488668203E-1,-2.764269590E0,-8.143587112E-1,2.902770149E0
3.138755442E0,3.233799338E-1,-2.813564301E0,-7.087373734E-1,2.919422429E0
3.143699290E0,2.591511011E-1,-2.905441046E0,-5.319080353E-1,2.965075568E0
3.148673655E0,2.179147005E-1,-2.985392332E0,-4.076223373E-1,3.020961794E0
3.153648020E0,1.827786565E-1,-3.105175734E0,-2.813234329E-1,3.123246268E0
3.158591868E0,1.675313711E-1,-3.191650629E0,-1.888828278E-1,3.201621030E0
3.163566233E0,1.283535361E-1,-3.224044323E0,-1.225252151E-1,3.228923792E0
3.168540598E0,7.150441408E-2,-3.269846201E0,-6.014919281E-2,3.271180977E0
3.173514964E0,7.666659355E-2,-3.352880716E0,-5.903244019E-4,3.353757179E0
3.178458811E0,3.024351597E-2,-3.432965279E0,7.110595703E-3,3.433105858E0
3.183433176E0,-8.920192719E-3,-3.526106358E0,-7.056236267E-3,3.526124701E0
3.188407542E0,-3.183472157E-2,-3.622974634E0,-1.034164429E-2,3.623129255E0
3.193381907E0,-1.374089718E-2,-3.703480244E0,-3.753662109E-2,3.703695955E0
3.198325755E0,-1.444792747E-2,-3.789237499E0,-4.740047455E-2,3.789561501E0
3.203300120E0,-4.606544971E-3,-3.858153582E0,-8.357238770E-2,3.859061366E0
3.208274485E0,-2.197107673E-2,-3.944508076E0,-1.854753494E-1,3.948927423E0
3.213218333E0,-1.097618937E-1,-3.963598251E0,-3.106260300E-1,3.977266310E0
3.218192698E0,-1.824653149E-1,-4.019041538E0,-3.758878708E-1,4.040702930E0
3.223167063E0,-2.753984928E-1,-4.121754646E0,-4.411745071E-1,4.154436260E0
3.228141428E0,-4.431757331E-1,-4.257624149E0,-6.353616714E-1,4.327522684E0
3.233085276E0,-6.115032434E-1,-4.414355278E0,-8.459911346E-1,4.536096310E0
3.238059641E0,-8.153128028E-1,-4.440849781E0,-1.153134346E0,4.660000061E0
3.243034006E0,-9.805395007E-1,-4.546879768E0,-1.444376945E0,4.870502859E0
3.248008372E0,-1.110787988E0,-4.658603668E0,-1.681637764E0,5.075858909E0
3.252952219E0,-1.284440041E0,-4.633908749E0,-1.809519768E0,5.137826223E0
3.257926585E0,-1.348658562E0,-4.776875019E0,-2.009387970E0,5.354909418E0
3.262900950E0,-1.431845427E0,-5.078450203E0,-2.317148209E0,5.762812995E0
3.267875315E0,-1.487341404E0,-5.359749794E0,-2.529269218E0,6.110344105E0
3.272819163E0,-1.558027744E0,-5.501723289E0,-2.585864067E0,6.275595795E0
3.277793528E0,-1.679269195E0,-5.593881607E0,-2.523872375E0,6.362498584E0
3.282767893E0,-1.785273075E0,-5.670499802E0,-2.428339958E0,6.421728965E0
3.287742258E0,-1.901848555E0,-5.793491364E0,-2.243810654E0,6.497403816E0
3.292686106E0,-2.013469934E0,-5.946821213E0,-2.018222809E0,6.594843972E0
3.297660471E0,-2.122784376E0,-6.152211666E0,-1.870656967E0,6.771652633E0
3.302634837E0,-2.332720995E0,-6.386376381E0,-1.701753616E0,7.008805597E0
3.307609202E0,-2.578863621E0,-6.580591202E0,-1.562192917E0,7.238450445E0
3.312553049E0,-2.796962261E0,-6.802050114E0,-1.382467270E0,7.483455044E0
3.317527415E0,-2.977544785E0,-7.164925575E0,-1.226621628E0,7.855350537E0
3.322501780E0,-3.067417145E0,-7.543797493E0,-1.054901123E0,8.211622552E0
3.327445628E0,-3.148290634E0,-7.894167423E0,-8.867321014E-1,8.544934584E0
3.332419993E0,-3.223366261E0,-8.157428741E0,-7.059659958E-1,8.799552358E0
3.337394358E0,-3.233292580E0,-8.286847115E0,-4.568376541E-1,8.907003797E0
3.342368723E0,-3.184520483E0,-8.325906754E0,-2.277860641E-1,8.917049987E0
3.347312571E0,-3.157959461E0,-8.364757538E0,-4.262733459E-2,8.941123739E0
3.352286936E0,-3.077614784E0,-8.453511238E0,1.235647202E-1,8.997156954E0
3.357261301E0,-2.961482525E0,-8.482727051E0,2.212495804E-1,8.987546291E0
3.362235667E0,-2.810422897E0,-8.518410683E0,2.356691360E-1,8.973145344E0
3.367210032E0,-2.633671284E0,-8.456090927E0,2.513017654E-1,8.860296314E0
3.372153880E0,-2.348873615E0,-8.384122849E0,3.442306519E-1,8.713737312E0
3.377128245E0,-2.041471481E0,-8.286454201E0,3.964519501E-1,8.543424558E0
3.382102610E0,-1.759407282E0,-8.238858223E0,3.814210892E-1,8.433254464E0
3.387046458E0,-1.497321129E0,-8.278913498E0,2.373323441E-1,8.416573288E0
3.392020823E0,-1.325089216E0,-8.327947617E0,1.749610901E-2,8.432726668E0
3.396995188E0,-1.174191475E0,-8.447404861E0,-1.593599319E-1,8.530109618E0
3.401969553E0,-1.007013798E0,-8.507542610E0,-2.553224564E-1,8.570737868E0
3.406913401E0,-8.435223103E-1,-8.636607170E0,-3.080682755E-1,8.683168740E0
3.411887766E0,-7.614672184E-1,-8.833397865E0,-3.768749237E-1,8.874163897E0
3.416862131E0,-7.267522812E-1,-9.095821381E0,-3.985176086E-1,9.133507089E0
3.421836497E0,-7.437765598E-1,-9.408815384E0,-4.053964615E-1,9.446870211E0
3.426780344E0,-8.437898159E-1,-9.733818054E0,-3.495140076E-1,9.776571751E0
3.431754710E0,-9.239230156E-1,-1.010001278E1,-2.796049118E-1,1.014603720E1
3.436729075E0,-9.668805599E-1,-1.050354671E1,-1.858005524E-1,1.054959115E1
3.441672923E0,-9.640815258E-1,-1.077311325E1,-1.321821213E-1,1.081697252E1
3.446647288E0,-1.006310463E0,-1.115383720E1,-8.970451355E-2,1.119949963E1
3.451621653E0,-1.114339590E0,-1.145963383E1,-1.617212296E-1,1.151482149E1
3.456596018E0,-1.282912016E0,-1.161476707E1,-2.311077118E-1,1.168768960E1
3.461539866E0,-1.505839825E0,-1.168806267E1,-2.310247421E-1,1.178693068E1
3.466514231E0,-1.745695591E0,-1.199511909E1,-2.636599541E-1,1.212434954E1
3.471488596E0,-1.928424835E0,-1.241728401E1,-2.849497795E-1,1.256936597E1
3.476462962E0,-2.126595974E0,-1.285820293E1,-3.139247894E-1,1.303665378E1
3.481406809E0,-2.293811798E0,-1.315739536E1,-3.596067429E-1,1.336068645E1
3.486381174E0,-2.427164555E0,-1.343506241E1,-3.620700836E-1,1.365734690E1
3.491355540E0,-2.604004860E0,-1.371398544E1,-2.800326347E-1,1.396182855E1
3.496329905E0,-2.788197041E0,-1.393287754E1,-2.076735497E-1,1.421063854E1
3.501304270E0,-3.027320862E0,-1.408291531E1,-2.095980644E-1,1.440614822E1
3.506248118E0,-3.195453167E0,-1.428447056E1,-1.702899933E-1,1.463851149E1
3.511222483E0,-3.373637676E0,-1.444901276E1,-7.060003281E-2,1.483780257E1
3.516196848E0,-3.471594810E0,-1.461981964E1,-5.722141266E-2,1.502645571E1
3.521140696E0,-3.590632439E0,-1.477106190E1,-1.633930206E-2,1.520122291E1
3.526115061E0,-3.622719765E0,-1.492245674E1,7.903146744E-2,1.535610822E1
3.531089426E0,-3.667834759E0,-1.509931564E1,1.127409935E-1,1.553882413E1
3.536063792E0,-3.702868462E0,-1.531321526E1,1.345896721E-1,1.575512332E1
3.541007639E0,-3.669973850E0,-1.556864548E1,1.930003166E-1,1.599652085E1
3.545982005E0,-3.503016949E0,-1.576785851E1,2.825379372E-1,1.615476144E1
3.550956370E0,-3.238055229E0,-1.590266609E1,3.415856361E-1,1.623257439E1
3.555900217E0,-2.936604500E0,-1.607142639E1,3.165960312E-1,1.634058216E1
3.560874583E0,-2.666951656E0,-1.638469696E1,2.942276001E-1,1.660293635E1
3.565848948E0,-2.473977089E0,-1.667770386E1,3.337149620E-1,1.686350302E1
3.570823313E0,-2.313843727E0,-1.698109436E1,4.099864960E-1,1.714291479E1
3.575767161E0,-2.243053436E0,-1.732025528E1,5.284447670E-1,1.747288716E1
3.580741526E0,-2.264218807E0,-1.757583809E1,6.444897652E-1,1.773279838E1
3.585715891E0,-2.369889259E0,-1.772444344E1,8.282971382E-1,1.790135041E1
3.590690256E0,-2.563071251E0,-1.784793854E1,1.018912792E0,1.805980143E1
3.595634104E0,-2.770394325E0,-1.799679375E1,1.194387436E0,1.824791033E1
3.600608469E0,-2.912446022E0,-1.814826965E1,1.311456680E0,1.842720684E1
3.605582835E0,-3.020463943E0,-1.837583351E1,1.434537888E0,1.867758974E1
3.610557200E0,-3.099570751E0,-1.854775620E1,1.407924175E0,1.885759394E1
3.615501048E0,-3.111536503E0,-1.857543945E1,1.293748379E0,1.887862270E1
3.620475413E0,-3.030814171E0,-1.815082550E1,1.279441833E0,1.844655177E1
3.625449778E0,-2.951182365E0,-1.854290962E1,1.347764492E0,1.882459677E1
3.630424143E0,-3.014950752E0,-1.916090012E1,1.293071032E0,1.943970303E1
3.635367991E0,-2.986894608E0,-1.931866264E1,1.283079624E0,1.959026695E1
3.640342356E0,-2.851236343E0,-1.915510368E1,1.337059259E0,1.941224545E1
3.645316721E0,-2.679825783E0,-1.903601456E1,1.212553501E0,1.926192105E1
3.650260569E0,-2.640199661E0,-1.908018875E1,1.038212299E0,1.928994924E1
3.655234934E0,-2.664871216E0,-1.930242348E1,9.914250374E-1,1.951071537E1
3.660209299E0,-2.771964073E0,-1.948155594E1,1.106759548E0,1.970887423E1
3.665183665E0,-2.954207420E0,-1.955074692E1,1.390057325E0,1.982148597E1
3.670127512E0,-3.045767784E0,-1.951349640E1,1.825224638E0,1.983392770E1
3.675101878E0,-2.935500145E0,-1.932900238E1,2.168177843E0,1.967049794E1
3.680076243E0,-2.554806709E0,-1.915906143E1,2.256176233E0,1.945988190E1
3.685050608E0,-2.246653557E0,-1.925704956E1,2.316637993E0,1.952557865E1
3.689994456E0,-1.962224960E0,-1.941374397E1,2.360199451E0,1.965488039E1
3.694968821E0,-1.709621429E0,-1.935058594E1,2.446074963E0,1.957935812E1
3.699943186E0,-1.417390823E0,-1.902993774E1,2.572705507E0,1.925529384E1
3.704917551E0,-1.145747185E0,-1.859231186E1,2.651666641E0,1.881536959E1
3.709861399E0,-7.446126938E-1,-1.833005905E1,2.581453562E0,1.852591200E1
3.714835764E0,-3.395881653E-1,-1.836914635E1,2.320720673E0,1.851827751E1
3.719810130E0,-7.830619812E-3,-1.852382088E1,1.976717353E0,1.862899387E1
3.724784495E0,2.504730225E-1,-1.857254791E1,1.703684330E0,1.865220665E1
3.729728342E0,4.395256042E-1,-1.850701714E1,1.591545224E0,1.858052427E1
3.734702708E0,5.455255508E-1,-1.832188225E1,1.597151756E0,1.839945274E1
3.739677073E0,5.143022537E-1,-1.813838959E1,1.621561050E0,1.821798957E1
3.744651438E0,4.312725067E-1,-1.808657646E1,1.705500126E0,1.817192821E1
3.749595286E0,3.420772552E-1,-1.800971603E1,2.030752182E0,1.812707486E1
3.754569651E0,3.331499100E-1,-1.779143524E1,2.390555620E0,1.795441208E1
3.759544016E0,2.861280441E-1,-1.763737869E1,2.668612480E0,1.784041729E1
3.764518381E0,2.192335129E-1,-1.750826645E1,2.973159075E0,1.776026836E1
3.769462229E0,2.414426804E-1,-1.733223724E1,3.191392899E0,1.762525833E1
3.774436594E0,2.237558365E-1,-1.715270424E1,3.316329479E0,1.747178785E1
3.779410960E0,2.022476196E-1,-1.696138954E1,3.544763088E0,1.732902146E1
3.784354807E0,2.579855919E-1,-1.666106796E1,3.831379414E0,1.709787152E1
3.789329173E0,3.693499565E-1,-1.622148323E1,4.083671093E0,1.673168572E1
3.794303538E0,5.765590668E-1,-1.576577473E1,4.268736362E0,1.634362821E1
3.799277903E0,7.783474922E-1,-1.539206123E1,4.303587437E0,1.600131990E1
3.804221751E0,9.488425255E-1,-1.506647110E1,4.274986744E0,1.568994472E1
3.809196116E0,1.120328903E0,-1.475020027E1,4.256087303E0,1.539278480E1
3.814170481E0,1.230535507E0,-1.439420700E1,4.232796192E0,1.505403522E1
3.819144846E0,1.321891308E0,-1.397333717E1,4.127696991E0,1.463008649E1
3.824088694E0,1.430956364E0,-1.359116173E1,4.050373077E0,1.425387089E1
3.829063059E0,1.547399998E0,-1.324770355E1,3.974106312E0,1.391724172E1
3.834037424E0,1.641677380E0,-1.293912220E1,3.863196373E0,1.360295094E1
3.839011790E0,1.733595371E0,-1.254505444E1,3.774031162E0,1.321465304E1
3.843955637E0,1.774363518E0,-1.209463120E1,3.608114719E0,1.274546827E1
3.848930003E0,1.754227638E0,-1.199085808E1,3.450048447E0,1.260003279E1
3.853904368E0,1.696382999E0,-1.178143597E1,3.459864616E0,1.239558840E1
3.858878733E0,1.743828297E0,-1.156707954E1,3.244508266E0,1.213940279E1
3.863822581E0,1.809245586E0,-1.128488159E1,3.142871380E0,1.185325114E1
3.868796946E0,1.871158600E0,-1.085093880E1,3.066802025E0,1.143019606E1
3.873771311E0,1.934124947E0,-1.044205856E1,2.955217361E0,1.102319083E1
3.878715159E0,2.025860786E0,-1.013971615E1,2.850557804E0,1.072583961E1
3.883689524E0,2.149974823E0,-9.904825211E0,2.688219070E0,1.048591798E1
3.888663889E0,2.255157948E0,-9.720629692E0,2.492200375E0,1.028530222E1
3.893638255E0,2.381459236E0,-9.527448654E0,2.300582409E0,1.008644166E1
3.898612620E0,2.505622864E0,-9.306496620E0,2.269114971E0,9.901409396E0
3.903556467E0,2.639417648E0,-8.992626190E0,2.315008163E0,9.653658069E0
3.908530833E0,2.823374271E0,-8.730400085E0,2.255908966E0,9.448833430E0
3.913505198E0,3.025824070E0,-8.493358612E0,2.224337578E0,9.286572536E0
3.918449046E0,3.217724323E0,-8.247655869E0,2.109718323E0,9.101015798E0
3.923423411E0,3.403067112E0,-8.031673431E0,2.087584496E0,8.969205812E0
3.928397776E0,3.629014969E0,-7.809940338E0,2.137110233E0,8.873114328E0
3.933372141E0,3.741187096E0,-7.551148415E0,2.223217964E0,8.715447285E0
3.938346506E0,3.864973068E0,-7.411149979E0,2.210809231E0,8.645856712E0
3.943290354E0,4.038435459E0,-7.383548260E0,2.289751530E0,8.721737667E0
3.948264719E0,4.124989033E0,-7.344839096E0,2.470280170E0,8.778637707E0
3.953239085E0,4.204668522E0,-7.194188595E0,2.714371204E0,8.763754786E0
3.958182932E0,4.308496952E0,-6.949728489E0,3.029030323E0,8.719913804E0
3.963157298E0,4.436859131E0,-6.767063618E0,3.338726044E0,8.753625566E0
3.968131663E0,4.650348186E0,-6.566185951E0,3.615360737E0,8.821075301E0
3.973075510E0,4.840837002E0,-6.312818527E0,3.862755775E0,8.843430489E0
3.978049876E0,4.913023949E0,-6.056043148E0,4.127976894E0,8.823471889E0
3.983024241E0,5.027886391E0,-5.851235390E0,4.414634228E0,8.888509015E0
3.987998606E0,5.149406910E0,-5.749881268E0,4.605233192E0,8.988086497E0
3.992942454E0,5.345790386E0,-5.665973186E0,4.781406403E0,9.140162700E0
3.997916819E0,5.431121826E0,-5.467046261E0,4.939631939E0,9.153449776E0
4.002891184E0,5.478490353E0,-5.284650803E0,5.030995369E0,9.124270111E0
4.007865549E0,5.557018280E0,-5.031888962E0,5.119040012E0,9.077716086E0
4.012809397E0,5.585142136E0,-4.770227909E0,5.186293125E0,8.991469477E0
4.017783762E0,5.546121597E0,-4.574109554E0,5.284796238E0,8.922500449E0
4.022758128E0,5.454661846E0,-4.422477245E0,5.253926277E0,8.770141514E0
4.027732493E0,5.305324078E0,-4.347031593E0,5.258010864E0,8.642327551E0
4.032676340E0,5.122315407E0,-4.347204685E0,5.213867664E0,8.504158966E0
4.037650706E0,5.008405209E0,-4.264550686E0,5.215554237E0,8.394791319E0
4.042625071E0,4.872719288E0,-4.168569088E0,5.202316761E0,8.257388278E0
4.047599436E0,4.770555019E0,-4.067543983E0,5.237795353E0,8.169308992E0
4.052543284E0,4.654712677E0,-4.033783913E0,5.340690613E0,8.152345612E0
4.057517649E0,4.604581833E0,-3.965633869E0,5.451195240E0,8.163574915E0
4.062492014E0,4.611475468E0,-3.782594204E0,5.484393120E0,8.102610246E0
4.067466380E0,4.607696533E0,-3.547867775E0,5.598888874E0,8.072533042E0
4.072410227E0,4.609000683E0,-3.380137444E0,5.699786186E0,8.071912970E0
4.077384592E0,4.520689487E0,-3.272626400E0,5.795608521E0,8.045855773E0
4.082358958E0,4.426242352E0,-3.237969398E0,5.905210018E0,8.059005679E0
4.087333323E0,4.349539280E0,-3.174710751E0,5.953202724E0,8.027322279E0
4.092277171E0,4.291073799E0,-3.068961620E0,6.040366173E0,8.019841849E0
4.097251536E0,4.296911716E0,-2.978724480E0,6.118850708E0,8.048390138E0
4.102225901E0,4.296228886E0,-2.918478012E0,6.173076630E0,8.067339811E0
4.107200266E0,4.271894455E0,-2.847586155E0,6.222584724E0,8.067117812E0
4.112174631E0,4.168312550E0,-2.773288250E0,6.276390076E0,8.028638092E0
4.117118479E0,4.055672646E0,-2.641939640E0,6.298908234E0,7.943838531E0
4.122092844E0,3.955585003E0,-2.537955761E0,6.399436474E0,7.939814818E0
4.127036692E0,3.853631020E0,-2.439547539E0,6.505227566E0,7.944800181E0
4.132011057E0,3.685747147E0,-2.409260750E0,6.573051929E0,7.911654761E0
4.136985423E0,3.455434322E0,-2.485308170E0,6.691405773E0,7.930428379E0
4.141959788E0,3.266682625E0,-2.589400291E0,6.794714451E0,7.971471239E0
4.146903635E0,3.115619659E0,-2.718083382E0,6.976050377E0,8.109275060E0
4.151878001E0,3.034493446E0,-2.782870293E0,7.139824867E0,8.241942531E0
4.156852366E0,2.989383698E0,-2.857754230E0,7.350223064E0,8.433798268E0
4.161826731E0,3.019709110E0,-2.922339916E0,7.591885090E0,8.677294101E0
4.166770579E0,3.132869244E0,-2.959576607E0,7.820953369E0,8.929797030E0
4.171744944E0,3.312137127E0,-3.000600338E0,8.045246124E0,9.203251596E0
4.176719309E0,3.461015224E0,-2.967528343E0,8.212965965E0,9.393490342E0
4.181693674E0,3.571317673E0,-3.037930489E0,8.329597473E0,9.558531563E0
4.186668040E0,3.734566689E0,-3.018486500E0,8.506163597E0,9.767961314E0
4.191611887E0,3.873196602E0,-2.980293751E0,8.621881485E0,9.910632830E0
4.196586253E0,3.898382664E0,-2.924837112E0,8.764148712E0,1.002807869E1
4.201560618E0,3.831511974E0,-2.981589317E0,9.049989700E0,1.026998892E1
4.206504465E0,3.676992416E0,-3.115959167E0,9.295579910E0,1.047078224E1
4.211478831E0,3.492715359E0,-3.243686199E0,9.442641258E0,1.057752498E1
4.216453196E0,3.340287209E0,-3.339910030E0,9.579940796E0,1.068118829E1
4.221397044E0,3.151480675E0,-3.483608246E0,9.671065331E0,1.075159809E1
4.226371409E0,2.984211445E0,-3.679167271E0,9.742073059E0,1.083281022E1
4.231345774E0,2.874101162E0,-3.841167927E0,9.716359138E0,1.083617384E1
4.236320139E0,2.820676327E0,-3.977553368E0,9.604018211E0,1.077099399E1
4.241263987E0,2.794693470E0,-4.148636818E0,9.550889969E0,1.078151187E1
4.246238352E0,2.796655178E0,-4.337777615E0,9.463905334E0,1.077975413E1
4.251212717E0,2.772525787E0,-4.532068253E0,9.351852417E0,1.075563506E1
4.256187083E0,2.755511761E0,-4.641054153E0,9.125557899E0,1.060226559E1
4.261130930E0,2.775252342E0,-4.639707565E0,8.947469711E0,1.045400048E1
4.266105296E0,2.854880810E0,-4.641919136E0,8.877395630E0,1.041661706E1
4.271079661E0,2.893808365E0,-4.699860096E0,8.829327583E0,1.041248469E1
4.276054026E0,2.790966988E0,-4.920725822E0,8.663492203E0,1.034693851E1
4.280997874E0,2.581975937E0,-5.148476601E0,8.523798943E0,1.028730088E1
4.285972239E0,2.386501312E0,-5.365294933E0,8.536337852E0,1.036102515E1
4.290946604E0,2.232608795E0,-5.549252510E0,8.582678795E0,1.046141103E1
4.295920969E0,2.050992966E0,-5.798753738E0,8.621694565E0,1.059083256E1
4.300864817E0,1.968380928E0,-6.132456779E0,8.653864861E0,1.078753571E1
4.305839182E0,1.977807999E0,-6.460608482E0,8.710162163E0,1.102352536E1
4.310813548E0,2.025739670E0,-6.658091545E0,8.778168678E0,1.120223413E1
4.315787913E0,2.086246490E0,-6.846263885E0,8.851878166E0,1.138329920E1
4.320731760E0,2.228397369E0,-7.052958012E0,8.879978180E0,1.155698854E1
4.325706126E0,2.389389992E0,-7.347523212E0,8.940107346E0,1.181612463E1
4.330680491E0,2.439019203E0,-7.608506203E0,8.921300888E0,1.197613422E1
4.335654856E0,2.424654961E0,-7.838390827E0,8.873215675E0,1.208525047E1
4.340598704E0,2.392902374E0,-8.123142242E0,8.879722595E0,1.227032579E1
4.345573069E0,2.338173866E0,-8.442887306E0,8.920196533E0,1.250277206E1
4.350547434E0,2.274124146E0,-8.893086433E0,8.971296310E0,1.283521657E1
4.355491282E0,2.260315895E0,-9.331626892E0,8.984362602E0,1.314941291E1
4.360465647E0,2.190432549E0,-9.730094910E0,9.040794373E0,1.346137826E1
4.365440012E0,2.081268311E0,-1.022944450E1,9.195321083E0,1.391140332E1
4.370414378E0,1.810860634E0,-1.085874748E1,9.357669830E0,1.444844621E1
4.375358225E0,1.486991882E0,-1.158754921E1,9.661684036E0,1.516016425E1
4.380332590E0,1.155862808E0,-1.241306305E1,1.009252167E1,1.603992353E1
4.385306956E0,8.169775009E-1,-1.329730606E1,1.051716042E1,1.697340461E1
4.390281321E0,4.852294922E-1,-1.426018524E1,1.088342285E1,1.794539561E1
4.395225169E0,1.019058228E-1,-1.526915550E1,1.134200859E1,1.902100558E1
4.400199534E0,-2.191257477E-1,-1.592325974E1,1.188247013E1,1.986935613E1
4.405173899E0,-5.730695724E-1,-1.619700241E1,1.285417175E1,2.068576871E1
4.410148264E0,-9.290552139E-1,-1.623278809E1,1.391721821E1,2.140223155E1
4.415092112E0,-1.307961464E0,-1.626688004E1,1.506132793E1,2.220733546E1
4.420066477E0,-1.674988747E0,-1.631913185E1,1.609469032E1,2.298170377E1
4.425040842E0,-2.098729134E0,-1.637227249E1,1.718725777E1,2.382976710E1
4.430015208E0,-2.455352783E0,-1.643328857E1,1.732230949E1,2.400300266E1
4.434959055E0,-2.676671028E0,-1.650255585E1,1.725531578E1,2.402592017E1
4.439933421E0,-2.908721924E0,-1.658149338E1,1.720158195E1,2.406867274E1
4.444907786E0,-3.010803223E0,-1.666980743E1,1.715122032E1,2.410626007E1
4.449882151E0,-3.234717369E0,-1.676697159E1,1.709097290E1,2.415980313E1
4.454825999E0,-3.732777596E0,-1.687145996E1,1.702388000E1,2.425679864E1
4.459800364E0,-4.462245941E0,-1.698528862E1,1.694509888E1,2.440385306E1
4.464774729E0,-5.320709229E0,-1.710840607E1,1.685202789E1,2.459671419E1
4.469749094E0,-6.350978851E0,-1.724177361E1,1.674414635E1,2.485920607E1
4.474692942E0,-7.604588509E0,-1.738589478E1,1.662301254E1,2.522743843E1
4.479667307E0,-9.113991737E0,-1.754447556E1,1.649015045E1,2.574487386E1
4.484641673E0,-1.056530571E1,-1.771909714E1,1.634921265E1,2.632278181E1
4.489616038E0,-1.056830120E1,-1.791276550E1,1.620273972E1,2.636446344E1
4.494559885E0,-1.050258732E1,-1.812768936E1,1.605565071E1,2.639510147E1
4.499534251E0,-1.047419834E1,-1.837139511E1,1.590995979E1,2.646400971E1
4.504508616E0,-1.043074322E1,-1.864664459E1,1.577132607E1,2.655621367E1
4.509452464E0,-1.038244152E1,-1.895462227E1,1.564962196E1,2.668301829E1
4.514426829E0,-1.033054161E1,-1.930127335E1,1.555448914E1,2.685519270E1
4.519401194E0,-1.027428150E1,-1.968533325E1,1.549834347E1,2.707899289E1
4.524375559E0,-1.021362305E1,-2.010725975E1,1.473971558E1,2.694214553E1
4.529349924E0,-1.015013885E1,-2.056690216E1,1.201445675E1,2.589150351E1
4.534324290E0,-1.008697701E1,-2.106227875E1,9.056379318E0,2.504764854E1
4.539268137E0,-1.002982330E1,-2.158645630E1,6.262065887E0,2.461271867E1
4.544242503E0,-9.986627579E0,-2.214152527E1,3.386957645E0,2.452450517E1
4.549216868E0,-9.968587875E0,-2.271805954E1,6.906731129E-1,2.481854151E1
4.554160715E0,-9.987579346E0,-2.330496979E1,-1.721449137E0,2.541331826E1
4.559135081E0,-1.005702591E1,-2.390160370E1,-3.842144251E0,2.621435679E1
4.564109446E0,-1.019027615E1,-2.449463272E1,-5.703097820E0,2.713584502E1
4.569053294E0,-1.039797306E1,-2.506943893E1,-7.333975792E0,2.811372998E1
4.574027659E0,-1.069185638E1,-2.562079430E1,-8.818820000E0,2.912923754E1
4.579002024E0,-1.107484055E1,-2.613177109E1,-1.046594810E1,3.024991939E1
4.583976389E0,-1.154420090E1,-2.658998489E1,-1.172291374E1,3.126855573E1
4.588920237E0,-1.081523037E1,-2.698343086E1,-1.275754929E1,3.174633542E1
4.593894602E0,-8.045908928E0,-2.731014252E1,-1.352021790E1,3.151788106E1
4.598868967E0,-5.097486019E0,-2.756385422E1,-1.471170044E1,3.165729857E1
4.603812815E0,-2.652834415E0,-2.774314117E1,-1.514769936E1,3.172021766E1
4.608787180E0,-5.848007202E-1,-2.785501480E1,-1.459562492E1,3.145275995E1
4.613761546E0,1.074583530E0,-2.790471268E1,-1.409431553E1,3.128062419E1
4.618735911E0,2.826229811E0,-2.790040779E1,-1.370673943E1,3.121369948E1
4.623679758E0,5.134541512E0,-2.785113144E1,-1.336118889E1,3.131406086E1
4.628654124E0,7.717818260E0,-2.776523781E1,-1.306676102E1,3.164195621E1
4.633628489E0,9.976121902E0,-2.765100098E1,-1.281637955E1,3.206805962E1
4.638602854E0,1.153734589E1,-2.751612091E1,-1.260104752E1,3.238878909E1
4.643577219E0,1.249990082E1,-2.736822128E1,-1.241363525E1,3.254789389E1
4.648521067E0,1.285362816E1,-2.721424484E1,-1.225037003E1,3.249465256E1
4.653495432E0,1.258562183E1,-2.705662155E1,-1.210601616E1,3.220270600E1
4.658469798E0,1.177659130E1,-2.689880943E1,-1.197876167E1,3.171316419E1
4.663413645E0,1.056716633E1,-2.674369812E1,-1.186694241E1,3.110811334E1
4.668388010E0,9.024479866E0,-2.659075165E1,-1.158269501E1,3.037545281E1
4.673362376E0,7.214549541E0,-2.644142151E1,-1.056489277E1,2.937372049E1
4.678336741E0,5.557312012E0,-2.629610634E1,-9.414306641E0,2.847802828E1
4.683280589E0,4.192504406E0,-2.615521431E1,-8.398566246E0,2.778863515E1
4.688254954E0,3.266772509E0,-2.601659966E1,-7.353849411E0,2.723259740E1
4.693229319E0,2.253068447E0,-2.588022423E1,-6.559368134E0,2.679342520E1
4.698203684E0,2.001376629E0,-2.574539757E1,-5.678281784E0,2.644000545E1
4.703147532E0,1.975972295E0,-2.561190414E1,-5.040100098E0,2.617779038E1
4.708121897E0,2.120801687E0,-2.547816658E1,-4.681330681E0,2.599133758E1
4.713096262E0,2.452653170E0,-2.534505653E1,-4.332536697E0,2.582940713E1
4.718040110E0,2.967078209E0,-2.481467247E1,-3.984100342E0,2.530700651E1
4.723014475E0,3.655018806E0,-2.340397644E1,-3.719886780E0,2.397796558E1
4.727988840E0,4.501265049E0,-2.202845383E1,-3.536695480E0,2.276010501E1
4.732963206E0,5.358735085E0,-2.058767509E1,-3.350468636E0,2.153587815E1
4.737907053E0,6.119368553E0,-1.909514046E1,-3.175687790E0,2.030162687E1
4.742881419E0,6.783229351E0,-1.773089600E1,-2.912662506E0,1.920626138E1
4.747855784E0,7.344028473E0,-1.641078186E1,-2.760513306E0,1.818980344E1
4.752830149E0,7.728515148E0,-1.517599201E1,-2.584833145E0,1.722562168E1
4.757773997E0,8.067131042E0,-1.389251709E1,-2.309206009E0,1.623000514E1
4.762748362E0,8.347360611E0,-1.269605637E1,-2.021711349E0,1.532826126E1
4.767722727E0,8.466953278E0,-1.153510380E1,-1.808760643E0,1.442288225E1
4.772697092E0,8.328054428E0,-1.054262733E1,-1.650208473E0,1.353612462E1
4.777640940E0,8.001039505E0,-9.720196724E0,-1.538141251E0,1.268324627E1
4.782615305E0,7.474501610E0,-9.086800575E0,-1.451307297E0,1.185514285E1
4.787589671E0,6.823397636E0,-8.541688919E0,-1.307376862E0,1.101037870E1
4.792564036E0,6.185595512E0,-8.056384087E0,-1.139027596E0,1.022077787E1
4.797507883E0,5.516397953E0,-7.580318928E0,-1.017173767E0,9.430086102E0
4.802482249E0,4.869299412E0,-7.191321850E0,-8.691291809E-1,8.728148271E0
4.807456614E0,4.282780647E0,-6.816561699E0,-7.279119492E-1,8.083166414E0
4.812400462E0,3.754100800E0,-6.481939316E0,-6.064062119E-1,7.515087398E0
4.817374827E0,3.286528826E0,-6.184428692E0,-5.185394287E-1,7.022628646E0
4.822349192E0,2.844291210E0,-5.844343185E0,-4.019346237E-1,6.512134151E0
4.827323557E0,2.430863619E0,-5.486824036E0,-2.430782318E-1,6.006115463E0
4.832267405E0,2.052947760E0,-5.128766060E0,-1.324024200E-1,5.525971969E0
4.837241770E0,1.780599356E0,-4.771233559E0,-4.615783691E-3,5.092663845E0
4.842216135E0,1.583415508E0,-4.441741943E0,6.128311157E-3,4.715539600E0
4.847190501E0,1.384125471E0,-4.151259899E0,6.008625031E-2,4.376342357E0
4.852134348E0,1.196078300E0,-3.896731377E0,7.284832001E-2,4.076815620E0
4.857108714E0,1.059141397E0,-3.637217760E0,4.569244385E-2,3.788564548E0
4.862083079E0,9.737491608E-1,-3.481066704E0,5.154514313E-2,3.615061511E0
4.867057444E0,9.281721115E-1,-3.340092897E0,1.161766052E-2,3.466678382E0
4.872001292E0,8.867774010E-1,-3.122372389E0,1.879501343E-2,3.245910773E0
4.876975657E0,8.983705044E-1,-2.912787914E0,-3.348350525E-3,3.048182115E0
4.881950022E0,8.987045288E-1,-2.811162472E0,-5.467414856E-3,2.951327526E0
4.886924387E0,8.725502491E-1,-2.715917826E0,-8.337974548E-3,2.852651941E0
4.891868235E0,9.192385674E-1,-2.547124863E0,-4.769992828E-2,2.708342647E0
4.896842600E0,8.998906612E-1,-2.383822203E0,-6.237506866E-2,2.548784445E0
4.901816965E0,8.765294552E-1,-2.257904053E0,-5.356121063E-2,2.422664525E0
4.906791331E0,8.635771275E-1,-2.144198179E0,-7.743263245E-2,2.312865560E0
4.911735178E0,7.998089790E-1,-2.064929724E0,-8.802700043E-2,2.216162882E0
4.916709544E0,7.506122589E-1,-2.006440639E0,-7.774353027E-2,2.143657356E0
4.921683909E0,6.772360802E-1,-1.946010351E0,-1.059246063E-1,2.063207459E0
4.926658274E0,5.939090252E-1,-1.861511469E0,-1.133718491E-1,1.957244506E0
4.931602122E0,4.773716927E-1,-1.818489313E0,-1.647539139E-1,1.887307862E0
4.936576487E0,3.378965855E-1,-1.774651051E0,-2.064332962E-1,1.818289075E0
4.941550852E0,1.974592209E-1,-1.710134029E0,-2.079133987E-1,1.734005918E0
4.946494700E0,2.787327766E-2,-1.712737560E0,-2.242527008E-1,1.727581009E0
4.951469065E0,-1.302108765E-1,-1.704242706E0,-2.937641144E-1,1.734270864E0
4.956443430E0,-2.684726715E-1,-1.748987198E0,-3.188638687E-1,1.797973292E0
4.961417796E0,-4.173495770E-1,-1.713750362E0,-3.271121979E-1,1.793912864E0
4.966361643E0,-4.964861870E-1,-1.704899549E0,-2.778129578E-1,1.797320519E0
4.971336008E0,-5.272510052E-1,-1.629644156E0,-2.773532867E-1,1.735124935E0
4.976310374E0,-5.585963726E-1,-1.541870117E0,-2.233924866E-1,1.655082345E0
4.981284739E0,-6.443569660E-1,-1.579693556E0,-1.923713684E-1,1.716867605E0
4.986228587E0,-7.197856903E-1,-1.601889610E0,-1.633081436E-1,1.763749221E0
4.991202952E0,-8.011798859E-1,-1.614901781E0,-1.726865768E-1,1.810971459E0
4.996177317E0,-8.966548443E-1,-1.606124401E0,-1.874732971E-1,1.848992087E0
5.001151682E0,-9.262082577E-1,-1.659873009E0,-2.017126083E-1,1.911472762E0
5.006095530E0,-9.591274261E-1,-1.682795763E0,-2.195701599E-1,1.949342980E0
5.011069895E0,-1.053792715E0,-1.728135347E0,-2.435216904E-1,2.038684301E0
5.016044260E0,-1.065804958E0,-1.745657921E0,-2.706995010E-1,2.063138387E0
5.021018626E0,-1.080146790E0,-1.770799875E0,-3.040781021E-1,2.096404727E0
5.025962473E0,-1.191394567E0,-1.817249060E0,-3.042526245E-1,2.194170645E0
5.030936839E0,-1.223410368E0,-1.892882109E0,-2.754106522E-1,2.270591692E0
5.035911204E0,-1.264052868E0,-1.919878244E0,-2.711505890E-1,2.314580905E0
5.040855051E0,-1.281168938E0,-1.920361519E0,-2.434816360E-1,2.321306855E0
5.045829417E0,-1.300674915E0,-1.923397303E0,-2.557792664E-1,2.335944231E0
5.050803782E0,-1.303334713E0,-1.954600573E0,-2.887830734E-1,2.366968617E0
5.055778147E0,-1.251431942E0,-1.895719767E0,-3.012647629E-1,2.291417857E0
5.060752512E0,-1.228667498E0,-1.951019764E0,-2.843198776E-1,2.323131450E0
5.065696360E0,-1.218533516E0,-1.969806671E0,-2.080459595E-1,2.325563453E0
5.070670725E0,-1.168429375E0,-2.049464464E0,-1.155385971E-1,2.361965487E0
5.075645090E0,-1.150471926E0,-2.160123825E0,-6.173133850E-3,2.447398353E0
5.080588938E0,-1.153651714E0,-2.257479906E0,1.117248535E-1,2.537638715E0
5.085563303E0,-1.115847588E0,-2.303739309E0,2.357473373E-1,2.570585041E0
5.090537669E0,-1.041707993E0,-2.420236588E0,3.263301849E-1,2.655031463E0
5.095512034E0,-9.650654793E-1,-2.567113161E0,4.349279404E-1,2.776793776E0
5.100455881E0,-8.807756901E-1,-2.689204216E0,5.740280151E-1,2.887402517E0
5.105430247E0,-7.993605137E-1,-2.792973280E0,6.646356583E-1,2.980170722E0
5.110404612E0,-7.166261673E-1,-2.869196653E0,7.509613037E-1,3.051194091E0
5.115378977E0,-6.062214375E-1,-2.986657143E0,8.047456741E-1,3.152021719E0
5.120322825E0,-5.443122387E-1,-3.091270685E0,7.960023880E-1,3.238186231E0
5.125297190E0,-4.969100952E-1,-3.230580568E0,8.345012665E-1,3.373420047E0
5.130271555E0,-4.474151134E-1,-3.423610210E0,9.014844894E-1,3.568467660E0
5.135245921E0,-4.245791435E-1,-3.615556955E0,9.370222092E-1,3.759059745E0
5.140214068E0,-3.946101665E-1,-3.777729273E0,1.000705719E0,3.927896075E0
5.145157915E0,-4.803562164E-1,-3.907008648E0,1.015313148E0,4.065257613E0
5.150132281E0,-5.587584972E-1,-4.046934128E0,1.067373276E0,4.222460492E0
5.155076128E0,-6.031076908E-1,-4.243811131E0,1.107226372E0,4.427146037E0
5.160050494E0,-6.448822021E-1,-4.438488960E0,1.131123543E0,4.625526756E0
5.165024859E0,-7.173085213E-1,-4.603907585E0,1.100845337E0,4.787729840E0
5.169999224E0,-8.003082275E-1,-4.802363396E0,1.112741470E0,4.994134662E0
5.174943072E0,-9.119412899E-1,-4.998490334E0,1.074894905E0,5.193451799E0
5.179917437E0,-1.042602539E0,-5.139678955E0,1.032756805E0,5.345082454E0
5.184891802E0,-1.147499800E0,-5.249926567E0,1.035603523E0,5.472746971E0
5.189866167E0,-1.237403631E0,-5.385286331E0,1.047886848E0,5.624103792E0
5.194840533E0,-1.291979790E0,-5.532049179E0,9.049329758E-1,5.752537144E0
5.199814898E0,-1.363641977E0,-5.673179626E0,6.883831024E-1,5.875232575E0
5.204758746E0,-1.332931042E0,-5.802514076E0,4.813022614E-1,5.973066770E0
5.209733111E0,-1.324418068E0,-5.841014862E0,2.642288208E-1,5.995110900E0
5.214676958E0,-1.382431746E0,-5.744718552E0,6.771850586E-2,5.909102687E0
5.219651324E0,-1.444862366E0,-5.609140396E0,-1.224422455E-1,5.793537377E0
5.224625689E0,-1.520492315E0,-5.464625359E0,-3.649120331E-1,5.683941237E0
5.229600054E0,-1.581740618E0,-5.379717827E0,-5.261230469E-1,5.632057594E0
5.234543902E0,-1.623898745E0,-5.357274055E0,-7.207784653E-1,5.644196491E0
5.239518267E0,-1.686360121E0,-5.191473961E0,-7.539758682E-1,5.510325939E0
5.244492632E0,-1.809614182E0,-4.730772495E0,-6.064958572E-1,5.101249760E0
5.249466997E0,-1.688559532E0,-5.117097855E0,-6.447763443E-1,5.426938389E0
5.254410845E0,-1.756672859E0,-5.619636536E0,-9.647827148E-1,5.966323827E0
5.259385210E0,-1.814270258E0,-5.964189529E0,-1.023978233E0,6.317567945E0
5.264359576E0,-1.902330399E0,-6.195312500E0,-1.143552780E0,6.580917176E0
5.269303423E0,-2.046343088E0,-6.337207794E0,-1.212621689E0,6.768912322E0
5.274277788E0,-2.183430910E0,-6.404680252E0,-1.185827255E0,6.869751520E0
5.279252154E0,-2.285291195E0,-6.475929260E0,-1.114119530E0,6.957117072E0
5.284226519E0,-2.430946350E0,-6.553694248E0,-1.034487724E0,7.066156898E0
5.289200884E0,-2.578827620E0,-6.673616409E0,-8.759088516E-1,7.207962554E0
5.294144732E0,-2.715092659E0,-6.821272373E0,-7.376031876E-1,7.378722342E0
5.299119097E0,-2.844672680E0,-7.009474754E0,-5.681324005E-1,7.586018284E0
5.304093462E0,-2.958890200E0,-7.183647156E0,-3.844671249E-1,7.778665222E0
5.309037310E0,-3.074209929E0,-7.338224411E0,-1.720323563E-1,7.958008502E0
5.314011675E0,-3.190421820E0,-7.502644539E0,-1.045541763E-1,8.153489930E0
5.318986040E0,-3.270512819E0,-7.685485840E0,-1.092052460E-2,8.352428746E0
5.323960406E0,-3.382821083E0,-7.932678223E0,7.277870178E-2,8.624161351E0
5.328904253E0,-3.441851377E0,-8.198814392E0,1.276912689E-1,8.892873743E0
5.333878619E0,-3.507927895E0,-8.438341141E0,1.973781586E-1,9.140575335E0
5.338852984E0,-3.575923920E0,-8.718450546E0,2.666082382E-1,9.427072279E0
5.343827349E0,-3.630209446E0,-9.012348175E0,3.669767380E-1,9.722937425E0
5.348771197E0,-3.712135077E0,-9.267896652E0,4.540176392E-1,9.993997558E0
5.353745562E0,-3.799606800E0,-9.567600250E0,5.048627853E-1,1.030683622E1
5.358719927E0,-3.872934818E0,-9.868388176E0,5.660638809E-1,1.061626759E1
5.363694292E0,-3.913990498E0,-1.016998959E1,6.907672882E-1,1.091902785E1
5.368638140E0,-4.012558937E0,-1.040542793E1,7.838897705E-1,1.117980514E1
5.373612505E0,-4.031383514E0,-1.075188351E1,8.683996201E-1,1.151560549E1
5.378586871E0,-4.123136520E0,-1.116866875E1,8.858337402E-1,1.193834653E1
5.383561236E0,-4.270219803E0,-1.151835632E1,8.009204865E-1,1.231051515E1
5.388505083E0,-4.423642635E0,-1.175693226E1,7.314949036E-1,1.258289136E1
5.393479449E0,-4.693906784E0,-1.188062477E1,5.965862274E-1,1.278819459E1
5.398453814E0,-5.011007309E0,-1.194821644E1,4.600410461E-1,1.296463297E1
5.403397662E0,-5.303122997E0,-1.207858849E1,3.152484894E-1,1.319525653E1
5.408372027E0,-5.561665058E0,-1.220846748E1,1.811437607E-1,1.341684052E1
5.413346392E0,-5.804684162E0,-1.238075352E1,4.999160767E-2,1.367405993E1
5.418320757E0,-6.035072327E0,-1.264526749E1,-2.940177917E-3,1.401159864E1
5.423264605E0,-6.175705433E0,-1.291922188E1,-8.782386780E-3,1.431941719E1
5.428238970E0,-6.228477001E0,-1.321475887E1,2.891254425E-2,1.460905930E1
5.433213335E0,-6.284401894E0,-1.346631336E1,1.173458099E-1,1.486099165E1
5.438187701E0,-6.311470985E0,-1.368849754E1,1.949539185E-1,1.507473509E1
5.443131548E0,-6.318011284E0,-1.389209175E1,2.869215012E-1,1.526400353E1
5.448105913E0,-6.361266136E0,-1.406757545E1,3.015117645E-1,1.544193302E1
5.453080279E0,-6.412374973E0,-1.423456955E1,3.037767410E-1,1.561517862E1
5.458054644E0,-6.434703827E0,-1.444690800E1,3.825740814E-1,1.581976381E1
5.462998492E0,-6.441069126E0,-1.466461372E1,4.678602219E-1,1.602364379E1
5.467972857E0,-6.445615768E0,-1.482797050E1,5.664472580E-1,1.617824262E1
5.472947222E0,-6.402555466E0,-1.501988029E1,6.699352264E-1,1.634130759E1
5.477921587E0,-6.344570160E0,-1.523347092E1,7.692842484E-1,1.651980644E1
5.482865435E0,-6.293358803E0,-1.540900993E1,8.371734619E-1,1.666567765E1
5.487839800E0,-6.304069996E0,-1.560519981E1,8.458929062E-1,1.685167928E1
5.492814165E0,-6.401922703E0,-1.582438755E1,9.237651825E-1,1.709529753E1
5.497758013E0,-6.526306629E0,-1.601124573E1,1.089167595E0,1.732451887E1
5.502732378E0,-6.576456070E0,-1.616739273E1,1.280267715E0,1.750066992E1
5.507706744E0,-6.599152565E0,-1.632757378E1,1.462133408E0,1.767134160E1
5.512681109E0,-6.625530243E0,-1.653504944E1,1.591630936E0,1.788403757E1
5.517624956E0,-6.715015411E0,-1.670067406E1,1.649734497E0,1.807555172E1
5.522599322E0,-6.757984638E0,-1.686062813E1,1.712370872E0,1.824509115E1
5.527573687E0,-6.692623138E0,-1.700876999E1,1.879336357E0,1.837447594E1
5.532548052E0,-6.624990463E0,-1.718474579E1,1.862748146E0,1.851150499E1
5.537491900E0,-6.615049839E0,-1.732732964E1,1.706235886E0,1.862542557E1
5.542466265E0,-6.678867340E0,-1.736072540E1,1.517475128E0,1.866292545E1
5.547440630E0,-6.770411491E0,-1.744539261E1,1.335254669E0,1.876067963E1
5.552414996E0,-6.870163441E0,-1.763252831E1,1.222426414E0,1.896310962E1
5.557358843E0,-6.891605377E0,-1.777175903E1,1.139577866E0,1.909524238E1
5.562333208E0,-6.820335388E0,-1.780977440E1,1.043346405E0,1.909957095E1
5.567307574E0,-6.721734047E0,-1.781290436E1,9.657716751E-1,1.906342008E1
5.572281939E0,-6.598792553E0,-1.785566711E1,9.015512466E-1,1.905732683E1
5.577256304E0,-6.424563885E0,-1.802064514E1,8.742179871E-1,1.915157773E1
5.582200152E0,-6.301858902E0,-1.813241196E1,8.297834396E-1,1.921422206E1
5.587174517E0,-6.181470871E0,-1.817152786E1,8.515996933E-1,1.921302238E1
5.592148882E0,-6.049713612E0,-1.819731712E1,8.827023506E-1,1.919688904E1
5.597092730E0,-5.951060295E0,-1.826119232E1,8.524179459E-1,1.922531872E1
5.602067095E0,-5.922341347E0,-1.832228851E1,7.974491119E-1,1.927216408E1
5.607041460E0,-5.985592365E0,-1.839796066E1,7.772283554E-1,1.936275694E1
5.612015826E0,-6.051340580E0,-1.841545486E1,7.543845177E-1,1.939888648E1
5.616959673E0,-6.079041958E0,-1.829740906E1,7.621288300E-1,1.929587442E1
5.621934038E0,-6.003339291E0,-1.814971352E1,9.202585220E-1,1.913894091E1
5.626908404E0,-5.921507359E0,-1.840590286E1,9.528899193E-1,1.935844800E1
5.631852251E0,-5.823563576E0,-1.867071915E1,9.636950493E-1,1.958158202E1
5.636826617E0,-5.657767773E0,-1.875277328E1,1.081406593E0,1.961749939E1
5.641800982E0,-5.544329643E0,-1.867409706E1,1.108270168E0,1.951127251E1
5.646775347E0,-5.519639969E0,-1.857538223E1,1.095628262E0,1.940906107E1
5.651749712E0,-5.602329731E0,-1.848997688E1,1.154088020E0,1.935451531E1
5.656724078E0,-5.648959160E0,-1.840933228E1,1.360696793E0,1.930455258E1
5.661667925E0,-5.587867260E0,-1.828322411E1,1.532238960E0,1.917937174E1
5.666642290E0,-5.521903038E0,-1.829971504E1,1.628659248E0,1.918393898E1
5.671586138E0,-5.509953022E0,-1.835252571E1,1.628110409E0,1.923084829E1
5.676560503E0,-5.484869480E0,-1.830485153E1,1.607098103E0,1.917639557E1
5.681534869E0,-5.517929554E0,-1.820233536E1,1.655573845E0,1.909223622E1
5.686509234E0,-5.486474991E0,-1.794777298E1,1.688769817E0,1.884345792E1
5.691453081E0,-5.390438557E0,-1.770939827E1,1.780823708E0,1.859706826E1
5.696427447E0,-5.191226959E0,-1.751734543E1,1.917171478E0,1.837067703E1
5.701401812E0,-4.894023895E0,-1.741802788E1,2.148665428E0,1.821965774E1
5.706376177E0,-4.569029808E0,-1.736196327E1,2.222772598E0,1.809017745E1
5.711320025E0,-4.176260948E0,-1.730056000E1,2.328771114E0,1.794919794E1
5.716294390E0,-3.902192116E0,-1.724644279E1,2.485296249E0,1.785619192E1
5.721268755E0,-3.727657318E0,-1.714367867E1,2.602011681E0,1.773616678E1
5.726212603E0,-3.671918869E0,-1.691197014E1,2.786880493E0,1.752895961E1
5.731186968E0,-3.471879959E0,-1.701216125E1,3.053776264E0,1.762932587E1
5.736161333E0,-3.365522385E0,-1.681655884E1,3.227119446E0,1.745100834E1
5.741135699E0,-3.314144135E0,-1.650589752E1,3.588788033E0,1.721358777E1
5.746079546E0,-3.191194534E0,-1.620108223E1,3.734506130E0,1.692942184E1
5.751053912E0,-3.109564781E0,-1.594303989E1,3.889444828E0,1.670262540E1
5.756028277E0,-3.013261795E0,-1.567296028E1,4.099257946E0,1.647802617E1
5.761002642E0,-2.813482285E0,-1.548023129E1,4.269473553E0,1.630281103E1
5.765946490E0,-2.464834213E0,-1.533069706E1,4.392140865E0,1.613680828E1
5.770920855E0,-2.118714333E0,-1.519688892E1,4.290052414E0,1.593232353E1
5.775895220E0,-1.979491234E0,-1.488568211E1,4.411692142E0,1.565135601E1
5.780869585E0,-1.865890503E0,-1.437481213E1,4.493257999E0,1.517584062E1
5.785813433E0,-1.708468437E0,-1.397536659E1,4.514348030E0,1.478543452E1
5.790787798E0,-1.583560944E0,-1.418398571E1,4.562096119E0,1.498351884E1
5.795762163E0,-1.655817986E0,-1.431955147E1,4.550732613E0,1.511623150E1
5.800736529E0,-1.845585823E0,-1.414228916E1,4.545088768E0,1.496891318E1
5.805680376E0,-2.173814774E0,-1.399352646E1,4.699760437E0,1.492085794E1
5.810654742E0,-2.432872772E0,-1.379684830E1,5.080949306E0,1.490261516E1
5.815629107E0,-2.614190102E0,-1.344372177E1,5.591358185E0,1.479293518E1
5.820603472E0,-2.757306099E0,-1.305532742E1,5.948062420E0,1.460903000E1
5.825547320E0,-2.786955833E0,-1.274437809E1,6.254270554E0,1.446728018E1
5.830521685E0,-2.828037262E0,-1.248986053E1,6.537049294E0,1.437801879E1
5.835496050E0,-2.841972351E0,-1.212306499E1,6.840649128E0,1.420704023E1
5.840439898E0,-2.848693848E0,-1.166752529E1,7.170372009E0,1.398786752E1
5.845414263E0,-2.802129745E0,-1.125009727E1,7.453850269E0,1.378319642E1
5.850388628E0,-2.633761406E0,-1.071692276E1,7.707816124E0,1.346103867E1
5.855362994E0,-2.463292122E0,-1.008192348E1,7.804574013E0,1.298554445E1
5.860306841E0,-2.332814217E0,-9.573211670E0,7.834985733E0,1.258870149E1
5.865281206E0,-2.243778229E0,-9.171523094E0,7.836921215E0,1.227064427E1
5.870255572E0,-2.169056892E0,-8.847705841E0,7.832185745E0,1.201373547E1
5.875229937E0,-2.082785606E0,-8.485206604E0,7.771433353E0,1.169324178E1
5.880204302E0,-1.994578362E0,-8.014049530E0,7.668819427E0,1.127005431E1
5.885148150E0,-1.867095947E0,-7.610382557E0,7.553034782E0,1.088357957E1
5.890122515E0,-1.781420708E0,-7.264257431E0,7.452459335E0,1.055850586E1
5.895096880E0,-1.648890495E0,-6.999743938E0,7.277671337E0,1.023131248E1
5.900040728E0,-1.562028885E0,-6.720241547E0,7.113940716E0,9.910082401E0
5.905015093E0,-1.525006294E0,-6.430692196E0,6.973558426E0,9.607807421E0
5.909989458E0,-1.544186592E0,-6.218868732E0,6.805254936E0,9.347210027E0
5.914963824E0,-1.646572113E0,-6.043918610E0,6.672300816E0,9.152035296E0
5.919907671E0,-1.691450119E0,-5.804414272E0,6.625005722E0,8.968998237E0
5.924882037E0,-1.830601692E0,-5.528958321E0,6.598351955E0,8.801064208E0
5.929856402E0,-1.939666748E0,-5.269354820E0,6.575418949E0,8.646649159E0
5.934830767E0,-2.044062614E0,-4.979569912E0,6.583819389E0,8.504174636E0
5.939774615E0,-2.218937874E0,-4.733662605E0,6.624417782E0,8.438848138E0
5.944748980E0,-2.387778282E0,-4.449560165E0,6.628236771E0,8.332682250E0
5.949723345E0,-2.390960693E0,-3.654369831E0,6.588848114E0,7.904684141E0
5.954697710E0,-2.321909904E0,-3.684239864E0,6.633115768E0,7.934929980E0
5.959641558E0,-2.386461258E0,-4.095493317E0,6.577952385E0,8.107880143E0
5.964615923E0,-2.465166569E0,-3.882238388E0,6.477602959E0,7.944064527E0
5.969590288E0,-2.402587414E0,-3.314013958E0,6.401632309E0,7.598421613E0
5.974534136E0,-2.350971699E0,-2.995213509E0,6.407140732E0,7.453175447E0
5.979508501E0,-2.259960175E0,-2.475358963E0,6.398842812E0,7.223573306E0
5.984482867E0,-2.293923378E0,-2.432666779E0,6.421000481E0,7.239419817E0
5.989457232E0,-2.295142651E0,-2.424541950E0,6.515877724E0,7.321389620E0
5.994401080E0,-2.384204865E0,-2.766247272E0,6.510154247E0,7.464493629E0
5.999375445E0,-2.521770477E0,-2.898922920E0,6.573131561E0,7.613746710E0
6.004349810E0,-2.602890968E0,-2.693350315E0,6.687769890E0,7.665209939E0
6.009324175E0,-2.633059502E0,-2.369113922E0,6.709681511E0,7.587195074E0
6.014265422E0,-2.669247627E0,-2.030134201E0,6.793191910E0,7.575868537E0
6.019239787E0,-2.650897503E0,-1.731851578E0,6.889962673E0,7.582753662E0
6.024214152E0,-2.681759834E0,-1.598047256E0,6.946571350E0,7.615802280E0
6.029188518E0,-2.704369545E0,-1.576459885E0,7.000609398E0,7.668596504E0
6.034132365E0,-2.781909943E0,-1.586426258E0,6.988783836E0,7.687578989E0
6.039106730E0,-2.853722572E0,-1.554055214E0,7.036993980E0,7.751006671E0
6.044081096E0,-2.921996593E0,-1.385891438E0,7.057635307E0,7.763309558E0
6.049055461E0,-3.000555515E0,-1.220966339E0,7.136944771E0,7.837733911E0
6.053999309E0,-2.988395214E0,-1.140167713E0,7.213980675E0,7.891261341E0
6.058973674E0,-3.008008480E0,-1.044932365E0,7.324821472E0,7.987052539E0
6.063948039E0,-3.043237686E0,-9.937891960E-1,7.423326015E0,8.084224249E0
6.068922404E0,-3.085644722E0,-8.562755585E-1,7.477404594E0,8.134248008E0
6.073866252E0,-3.168276787E0,-7.692518234E-1,7.594641685E0,8.264884058E0
6.078840617E0,-3.272243500E0,-6.772761345E-1,7.703062057E0,8.396632989E0
6.083814982E0,-3.426714897E0,-5.924792290E-1,7.728754044E0,8.475083816E0
6.088789348E0,-3.600472450E0,-5.606174469E-1,7.762156487E0,8.574891667E0
6.093733195E0,-3.730489254E0,-4.793663025E-1,7.747470856E0,8.612180141E0
6.098707561E0,-3.767520428E0,-1.573553085E-1,7.711123466E0,8.583728559E0
6.103681926E0,-3.809219837E0,-3.985915184E-1,7.781734467E0,8.673201386E0
6.108625773E0,-3.891520023E0,-6.046710014E-1,7.845694542E0,8.778637591E0
6.113600139E0,-3.994756222E0,-5.124688148E-1,7.869709969E0,8.840420609E0
6.118574504E0,-4.032389164E0,-3.415575027E-1,7.935483932E0,8.907790362E0
6.123548869E0,-4.046246529E0,-3.520798683E-1,8.047534943E0,9.014371296E0
6.128492717E0,-4.022096157E0,-3.080782890E-1,8.096198082E0,9.045473626E0
6.133467082E0,-4.000260353E0,-2.523536682E-1,8.095266342E0,9.033222150E0
6.138441447E0,-4.020229340E0,-2.260789871E-1,8.157521248E0,9.097170360E0
6.143415812E0,-4.075293064E0,-2.267794609E-1,8.214424133E0,9.172579044E0
6.148359660E0,-4.132869244E0,-3.005342484E-1,8.262865067E0,9.243693425E0
6.153334025E0,-4.232202530E0,-3.892636299E-1,8.244891167E0,9.275844694E0
6.158308391E0,-4.316782475E0,-4.537081718E-1,8.254713058E0,9.326347072E0
6.163282756E0,-4.336454391E0,-5.164914131E-1,8.153439522E0,9.249333820E0
6.168226604E0,-4.387425423E0,-6.250510216E-1,8.100427628E0,9.233478130E0
6.173200969E0,-4.404271126E0,-7.437472343E-1,8.009737968E0,9.170968674E0
6.178175334E0,-4.446396351E0,-8.126163483E-1,7.955684662E0,9.150065807E0
6.183149699E0,-4.449390888E0,-8.805594444E-1,7.919677734E0,9.126541493E0
6.188093547E0,-4.447422028E0,-1.001829147E0,7.921069145E0,9.139286664E0
6.193067912E0,-4.478437424E0,-1.168695450E0,7.893261909E0,9.150182205E0
6.198042277E0,-4.481919289E0,-1.343353748E0,7.914436817E0,9.194047527E0
6.203016643E0,-4.466186047E0,-1.468910217E0,7.900070667E0,9.193238362E0
6.207960490E0,-4.412156105E0,-1.566858292E0,7.875672817E0,9.162335331E0
6.212934855E0,-4.331066608E0,-1.675630569E0,7.839166641E0,9.111443870E0
6.217909221E0,-4.248795986E0,-1.717953205E0,7.761109829E0,9.013237838E0
6.222853068E0,-4.174448967E0,-1.824125290E0,7.696604729E0,8.943778933E0
6.227827434E0,-4.062436104E0,-2.009711266E0,7.645174980E0,8.887689629E0
6.232801799E0,-3.976908684E0,-2.155633450E0,7.544856071E0,8.797011503E0
6.237776164E0,-3.904820919E0,-2.274375916E0,7.506809235E0,8.761997324E0
6.242720012E0,-3.754693985E0,-2.394669056E0,7.384919643E0,8.623758168E0
6.247694377E0,-3.662132263E0,-2.456446171E0,7.286575794E0,8.517013990E0
6.252668742E0,-3.569751740E0,-2.621830463E0,7.251674652E0,8.497288257E0
6.257643107E0,-3.494391441E0,-2.824465275E0,7.272727013E0,8.548738728E0
6.262586955E0,-3.421850681E0,-3.004007816E0,7.348229885E0,8.644628823E0
6.267561320E0,-3.334519863E0,-3.154352188E0,7.487071991E0,8.782095846E0
6.272535686E0,-3.221154690E0,-3.358816147E0,7.657914162E0,8.961089931E0
6.277510051E0,-3.077842236E0,-3.616620064E0,7.871376038E0,9.193019865E0
6.282453898E0,-2.896584511E0,-3.832517147E0,8.046611786E0,9.371571413E0
6.287428264E0,-2.658824444E0,-3.995282650E0,8.209648132E0,9.509466511E0
6.292402629E0,-2.457704544E0,-4.126093864E0,8.383357048E0,9.661554616E0
6.297376994E0,-2.233019352E0,-4.265335083E0,8.493467331E0,9.763116618E0
6.302320842E0,-2.061805248E0,-4.500268936E0,8.612537384E0,9.933743583E0
6.307295207E0,-1.940530777E0,-4.802448750E0,8.607249260E0,1.004559175E1
6.312269572E0,-1.856122971E0,-5.256301403E0,8.597269058E0,1.024631310E1
6.317213420E0,-1.768054485E0,-5.754452229E0,8.471369743E0,1.039248971E1
6.322187785E0,-1.681857109E0,-6.180241108E0,8.296188354E0,1.048097155E1
6.327162150E0,-1.700115204E0,-6.618462086E0,8.132772446E0,1.062244886E1
6.332136516E0,-1.713151932E0,-7.193977833E0,8.023841858E0,1.091193130E1
6.337080363E0,-1.745536804E0,-7.788531780E0,8.013875008E0,1.131062857E1
6.342054729E0,-1.726643562E0,-8.414090157E0,8.065636635E0,1.178272912E1
6.347029094E0,-1.671039581E0,-9.124027252E0,8.256834030E0,1.241835556E1
6.352003459E0,-1.584103584E0,-9.687236786E0,8.526773453E0,1.300222313E1
6.356947307E0,-1.422520638E0,-1.021306801E1,8.887483597E0,1.361314393E1
6.361921672E0,-1.192893982E0,-1.068102074E1,9.360535622E0,1.425225691E1
6.366896037E0,-9.542770386E-1,-1.114975739E1,9.849568367E0,1.490777419E1
6.371870402E0,-6.660385132E-1,-1.155342865E1,1.039552784E1,1.555610234E1
6.376814250E0,-4.566154480E-1,-1.200073433E1,1.078275967E1,1.613982739E1
6.381788615E0,-3.303060532E-1,-1.263082695E1,1.113697433E1,1.684277557E1
6.386762980E0,-3.520498276E-1,-1.322351837E1,1.129527283E1,1.739449814E1
6.391737346E0,-3.762416840E-1,-1.360775852E1,1.143595791E1,1.777902649E1
6.396681193E0,-4.289340973E-1,-1.410688019E1,1.150415421E1,1.820806462E1
6.401655559E0,-5.509061813E-1,-1.476990318E1,1.145657635E1,1.870044596E1
6.406629924E0,-7.303810120E-1,-1.547826672E1,1.117572689E1,1.910515816E1
6.411604289E0,-8.648958206E-1,-1.561460114E1,1.090942192E1,1.906775551E1
6.416548137E0,-9.660539627E-1,-1.569147587E1,1.067498684E1,1.900292133E1
6.421522502E0,-1.073450089E0,-1.578837872E1,1.038784981E1,1.892967568E1
6.426496867E0,-1.129220009E0,-1.588918114E1,1.002525997E1,1.882145192E1
6.431440715E0,-1.101873398E0,-1.599397087E1,9.553755760E0,1.866267608E1
6.436415080E0,-1.059485435E0,-1.610664749E1,9.050367355E0,1.850556003E1
6.441389445E0,-1.024971008E0,-1.622616577E1,8.640747070E0,1.841199422E1
6.446363811E0,-1.101614952E0,-1.635219383E1,8.343298912E0,1.839071601E1
6.451338176E0,-1.180948257E0,-1.648420715E1,8.195871353E0,1.844711445E1
6.456282023E0,-1.277478218E0,-1.662068939E1,8.324579239E0,1.863271011E1
6.461256389E0,-1.460988045E0,-1.676287651E1,8.630079269E0,1.891049400E1
6.466230754E0,-1.720495224E0,-1.690898514E1,9.247377396E0,1.934910517E1
6.471174602E0,-2.099877357E0,-1.705701065E1,1.019947338E1,1.998450286E1
6.476148967E0,-2.675515175E0,-1.720858002E1,1.145321560E1,2.084393809E1
6.481123332E0,-3.489008904E0,-1.736276245E1,1.303365135E1,2.198896929E1
6.486097697E0,-4.393319130E0,-1.752042961E1,1.473476028E1,2.331050981E1
6.491041545E0,-5.414102554E0,-1.768103409E1,1.636953354E1,2.469601387E1
6.496015910E0,-6.675022125E0,-1.784772110E1,1.662049866E1,2.528513485E1
6.500990275E0,-8.206468582E0,-1.802017975E1,1.656092834E1,2.581351104E1
6.505964641E0,-9.820113182E0,-1.819970894E1,1.650382233E1,2.645827243E1
6.510908488E0,-9.947329521E0,-1.838743210E1,1.644545937E1,2.659887512E1
6.515882854E0,-9.880677223E0,-1.858897972E1,1.636458015E1,2.666416009E1
6.520857219E0,-9.847552299E0,-1.880725098E1,1.627062798E1,2.674734212E1
6.525831584E0,-9.815690994E0,-1.904710770E1,1.616524124E1,2.684129516E1
6.530775432E0,-9.782343864E0,-1.931170845E1,1.605460930E1,2.695156423E1
6.535749797E0,-9.752672195E0,-1.961001968E1,1.594691086E1,2.709190752E1
6.540724162E0,-9.725946426E0,-1.994626427E1,1.585287285E1,2.727198324E1
6.545668010E0,-9.701256752E0,-2.032323456E1,1.578600311E1,2.750174794E1
6.550642375E0,-9.678324699E0,-2.074967957E1,1.571758080E1,2.777159551E1
6.555616740E0,-9.658508301E0,-2.122479820E1,1.427512741E1,2.734150881E1
6.560591105E0,-9.645209312E0,-2.174760628E1,1.137385559E1,2.636954745E1
6.565565471E0,-9.645113945E0,-2.231423378E1,8.628039360E0,2.579527700E1
6.570509318E0,-9.667703629E0,-2.291410637E1,6.021998405E0,2.558877154E1
6.575483684E0,-9.725365639E0,-2.354619026E1,3.542959452E0,2.572077709E1
6.580458049E0,-9.830414772E0,-2.419641876E1,1.268478155E0,2.614790187E1
6.585401896E0,-9.992324829E0,-2.484899139E1,-9.142853022E-1,2.679841127E1
6.590376262E0,-1.022093105E1,-2.549959183E1,-3.047994137E0,2.764031265E1
6.595350627E0,-1.051910019E1,-2.613068581E1,-5.271559238E0,2.865752164E1
6.600324992E0,-1.088659382E1,-2.672967529E1,-7.494085789E0,2.981869863E1
6.605268840E0,-1.131694412E1,-2.728152466E1,-9.799320221E0,3.111882852E1
6.610243205E0,-1.180942535E1,-2.778323364E1,-1.221448326E1,3.256630467E1
6.615217570E0,-1.235298538E1,-2.822329712E1,-1.431384659E1,3.397111939E1
6.620191936E0,-1.225430298E1,-2.859650421E1,-1.611217117E1,3.503612499E1
6.625135783E0,-1.063116455E1,-2.889878082E1,-1.710655212E1,3.522492467E1
6.630110148E0,-8.958092690E0,-2.913455200E1,-1.659314537E1,3.470449565E1
6.635084514E0,-7.523519516E0,-2.930298233E1,-1.608759308E1,3.426483285E1
6.640058879E0,-5.993428230E0,-2.940664291E1,-1.566109657E1,3.385176178E1
6.645033244E0,-4.148846149E0,-2.944878960E1,-1.523817921E1,3.341625710E1
6.649977092E0,-2.085211515E0,-2.943297577E1,-1.483965683E1,3.302822406E1
6.654951457E0,6.193757057E-2,-2.936341858E1,-1.445957947E1,3.273062213E1
6.659895305E0,2.464728117E0,-2.924448013E1,-1.410034561E1,3.255970284E1
6.664869670E0,4.652486324E0,-2.907967949E1,-1.375679016E1,3.250419456E1
6.669844035E0,6.285424232E0,-2.887504768E1,-1.333019447E1,3.241865237E1
6.674818400E0,8.246425629E0,-2.863702011E1,-1.272775650E1,3.240491077E1
6.679762248E0,9.809661865E0,-2.837356758E1,-1.268499279E1,3.259137685E1
6.684736613E0,1.035111809E1,-2.808922768E1,-1.227944183E1,3.235637571E1
6.689710979E0,1.036414242E1,-2.779166412E1,-1.182267952E1,3.193067168E1
6.694685344E0,9.796493530E0,-2.748633194E1,-1.145388699E1,3.134742822E1
6.699659709E0,8.870512009E0,-2.717763901E1,-1.117127991E1,3.069377038E1
6.704603557E0,7.640096188E0,-2.687101364E1,-1.070307636E1,2.991618772E1
6.709577922E0,6.258981705E0,-2.656564713E1,-1.021376705E1,2.914154245E1
6.714552287E0,4.902802944E0,-2.626487350E1,-9.697703362E0,2.842404805E1
6.719526652E0,3.734742403E0,-2.596982574E1,-9.221191406E0,2.781025928E1
6.724470500E0,2.385490417E0,-2.568295479E1,-8.848674774E0,2.726909930E1
6.729444865E0,1.416301966E0,-2.540165329E1,-8.474701881E0,2.681548942E1
6.734419230E0,5.835604668E-1,-2.512758446E1,-7.785725594E0,2.631261231E1
6.739393596E0,5.389857292E-2,-2.485967636E1,-7.253956795E0,2.589645348E1
6.744337443E0,-8.715295792E-2,-2.459841728E1,-6.954712868E0,2.556281987E1
6.749311809E0,-3.113269806E-2,-2.434084320E1,-6.804477692E0,2.527406840E1
6.754286174E0,2.988855839E-1,-2.408816338E1,-6.668653488E0,2.499599741E1
6.759230021E0,8.798201084E-1,-2.384220505E1,-6.642181396E0,2.476577071E1
6.764204387E0,1.607431173E0,-2.313415909E1,-6.722555161E0,2.414468678E1
6.769178752E0,2.479848146E0,-2.134587860E1,-6.752539635E0,2.252538505E1
6.774153117E0,3.296704531E0,-1.957708359E1,-6.754691124E0,2.097036754E1
6.779096965E0,4.045066833E0,-1.782576561E1,-6.661671638E0,1.945503416E1
6.784071330E0,4.770885944E0,-1.621535492E1,-6.497826576E0,1.810858465E1
6.789045695E0,5.338560104E0,-1.465911293E1,-6.356998444E0,1.684640155E1
6.793989543E0,5.814656734E0,-1.311514950E1,-6.199261665E0,1.562844280E1
6.798963908E0,6.080071449E0,-1.190382862E1,-5.836061478E0,1.458519860E1
6.803938273E0,6.192690372E0,-1.069424820E1,-5.483736038E0,1.351990087E1
6.808912639E0,6.186556339E0,-9.897885323E0,-4.993396759E0,1.269549622E1
6.813856486E0,5.967423439E0,-9.240319252E0,-4.545385361E0,1.190185576E1
6.818830852E0,5.608751774E0,-8.552217484E0,-4.255900383E0,1.107750913E1
6.823805217E0,5.146841526E0,-7.902794838E0,-4.040461540E0,1.026009130E1
6.828779582E0,4.684988976E0,-7.409590721E0,-3.768978119E0,9.542345226E0
6.833723430E0,4.156073570E0,-7.027541637E0,-3.556952477E0,8.905683573E0
6.838697795E0,3.738643646E0,-6.555186749E0,-3.432836533E0,8.290494333E0
6.843672160E0,3.410781384E0,-6.136040211E0,-3.297246933E0,7.756046445E0
6.848646525E0,3.176214933E0,-5.626178265E0,-3.121276855E0,7.175276467E0
6.853590373E0,2.992247343E0,-5.085484982E0,-2.959313393E0,6.601002758E0
6.858564738E0,2.836691380E0,-4.572094440E0,-2.758013725E0,6.046280283E0
6.863539104E0,2.634426117E0,-4.166739464E0,-2.644237518E0,5.594096064E0
6.868513469E0,2.523081779E0,-3.780764580E0,-2.552847862E0,5.213171269E0
6.873457316E0,2.511332750E0,-3.406605482E0,-2.502010345E0,4.916483384E0
6.878431682E0,2.455108643E0,-3.067206383E0,-2.390472412E0,4.598877232E0
6.883406047E0,2.371178150E0,-2.757781506E0,-2.273909569E0,4.289348363E0
6.888380412E0,2.316723824E0,-2.561762333E0,-2.067223549E0,4.025325916E0
6.893334946E0,2.239258528E0,-2.356335640E0,-1.924071312E0,3.777386241E0
6.898309311E0,2.186384201E0,-2.207147360E0,-1.781442642E0,3.581244648E0
6.903283676E0,2.211411476E0,-2.051199675E0,-1.680120468E0,3.452617212E0
6.908227524E0,2.263362169E0,-1.793373823E0,-1.570462227E0,3.287149158E0
6.913201889E0,2.279870272E0,-1.590939641E0,-1.442121506E0,3.131870341E0
6.918176254E0,2.283989191E0,-1.382768035E0,-1.266294479E0,2.955022127E0
6.923120102E0,2.260795355E0,-1.171657324E0,-1.200283051E0,2.815076539E0
6.928094467E0,2.214083910E0,-1.059799552E0,-1.083624840E0,2.683204324E0
6.933068832E0,2.187321901E0,-9.167016745E-1,-1.034246445E0,2.587350917E0
6.938043198E0,2.104857206E0,-8.273110986E-1,-9.798326492E-1,2.464739242E0
6.943017563E0,1.971184254E0,-7.654395700E-1,-9.282836914E-1,2.309366950E0
6.947961411E0,1.749033213E0,-6.823695302E-1,-8.958129883E-1,2.080198612E0
6.952935776E0,1.494261265E0,-6.355043054E-1,-9.261837006E-1,1.869357830E0
6.957910141E0,1.220841408E0,-6.905169487E-1,-8.993358612E-1,1.666154972E0
6.962884506E0,9.423549175E-1,-7.502807379E-1,-8.775444031E-1,1.490314784E0
6.967828354E0,7.450265884E-1,-8.372724652E-1,-8.763170242E-1,1.422681034E0
6.972802719E0,5.255181789E-1,-8.816641569E-1,-7.703971863E-1,1.283359991E0
6.977777084E0,3.452537060E-1,-9.814029932E-1,-7.461071014E-1,1.280245197E0
6.982751450E0,1.129593849E-1,-1.059576392E0,-5.782508850E-1,1.212367947E0
6.987725815E0,1.178815365E-1,-1.074273705E0,-5.757408142E-1,1.224515225E0
6.992669663E0,1.168453693E-1,-1.160421968E0,-5.044755936E-1,1.270719327E0
6.997644028E0,1.347889900E-1,-1.202818871E0,-4.379539490E-1,1.287146056E0
7.002618393E0,2.323915958E-1,-1.182177067E0,-2.935428619E-1,1.240046726E0
7.007592758E0,3.408007622E-1,-1.161801457E0,-1.257553101E-1,1.217268329E0
7.012536606E0,4.785048962E-1,-1.123395920E0,2.327060699E-2,1.221280823E0
7.017510971E0,6.676123142E-1,-1.065810323E0,1.205101013E-1,1.263400384E0
7.022485336E0,7.568778992E-1,-1.021016836E0,1.901216507E-1,1.285101465E0
7.027429184E0,7.982745171E-1,-1.005125403E0,2.460508347E-1,1.306927808E0
7.032403549E0,8.477976322E-1,-9.617820382E-1,2.688713074E-1,1.309991334E0
7.037377915E0,8.832826614E-1,-9.308134913E-1,3.791837692E-1,1.338051698E0
7.042352280E0,9.257063866E-1,-9.014595151E-1,4.147129059E-1,1.357036612E0
7.047326645E0,9.350347519E-1,-8.618289232E-1,5.313768387E-1,1.378187369E0
7.052270493E0,8.753349781E-1,-8.923693895E-1,6.268186569E-1,1.398369079E0
7.057244858E0,8.070645332E-1,-9.229133129E-1,7.285871506E-1,1.426170179E0
7.062219223E0,7.140758038E-1,-1.049587369E0,8.456020355E-1,1.525313312E0
7.067163071E0,6.194374561E-1,-1.170130730E0,8.937063217E-1,1.597379002E0
7.072137436E0,5.092649460E-1,-1.290192366E0,9.499979019E-1,1.681202885E0
7.077111801E0,4.319519997E-1,-1.410026073E0,1.051166534E0,1.810996174E0
7.082086166E0,3.486163616E-1,-1.515787601E0,1.132742882E0,1.924123659E0
7.087060532E0,2.641389370E-1,-1.601407766E0,1.218321800E0,2.029429531E0
7.092004379E0,1.844620705E-1,-1.732955694E0,1.273632050E0,2.158541241E0
7.096978745E0,1.245722771E-1,-1.805397749E0,1.432223320E0,2.307865447E0
7.101953110E0,8.569383621E-2,-1.836272955E0,1.499940872E0,2.372564945E0
7.106896957E0,-9.875774384E-3,-1.926557064E0,1.549259186E0,2.472230506E0
7.111871323E0,-8.737802505E-2,-1.972839713E0,1.577607155E0,2.527563211E0
7.116845688E0,-1.932990551E-1,-1.984320760E0,1.707984924E0,2.625282062E0
7.121789536E0,-3.083393574E-1,-2.034129143E0,1.796057701E0,2.731039691E0
7.126763901E0,-3.856730461E-1,-2.106128693E0,1.845898628E0,2.826988418E0
7.131738266E0,-5.407328606E-1,-2.216723442E0,1.885649681E0,2.960055669E0
7.136682114E0,-6.263732910E-1,-2.416088104E0,1.937669754E0,3.159808428E0
7.141656479E0,-6.978604794E-1,-2.542030811E0,1.984770775E0,3.299734069E0
7.146630844E0,-7.354848385E-1,-2.757100105E0,1.920975685E0,3.439867224E0
7.151605209E0,-7.968091965E-1,-2.924232483E0,1.944326401E0,3.600895120E0
7.156579575E0,-7.972090244E-1,-2.628498077E0,1.864830017E0,3.319960145E0
7.161523422E0,-7.884037495E-1,-2.576790810E0,1.673953056E0,3.172309913E0
7.166497788E0,-7.873229980E-1,-2.756121397E0,1.472572327E0,3.222507085E0
7.171472153E0,-7.842149734E-1,-3.019326448E0,1.177555084E0,3.334360704E0
7.176416000E0,-7.428247929E-1,-3.215295553E0,9.624023438E-1,3.437460173E0
7.181390366E0,-6.581516266E-1,-3.275689125E0,8.718576431E-1,3.453033240E0
7.186364731E0,-6.035678387E-1,-3.232145548E0,7.421464920E-1,3.370732916E0
7.191339096E0,-5.376715660E-1,-3.239932537E0,5.999994278E-1,3.338600436E0
7.196282944E0,-4.910943508E-1,-3.308959484E0,4.818506241E-1,3.379728769E0
7.201257309E0,-4.291856289E-1,-3.356285572E0,3.666715622E-1,3.403424919E0
7.206231674E0,-4.106371403E-1,-3.447907925E0,1.697473526E-1,3.476421448E0
7.211206040E0,-4.229252338E-1,-3.588498592E0,4.558181763E-2,3.613622227E0
7.216149887E0,-4.265995026E-1,-3.717334747E0,-5.654525757E-2,3.742160088E0
7.221124252E0,-4.479007721E-1,-3.871078491E0,-1.270875931E-1,3.898976153E0
7.226098618E0,-4.676580429E-1,-3.889155865E0,-2.603273392E-1,3.925813000E0
7.231072983E0,-5.015745163E-1,-4.042922974E0,-2.976064682E-1,4.084773283E0
7.236016831E0,-5.439534187E-1,-4.232504368E0,-3.849115372E-1,4.284639476E0
7.240991196E0,-5.426688194E-1,-3.448973417E0,-8.524513245E-2,3.492445248E0
7.245965561E0,-5.990500450E-1,-4.305388927E0,1.185178757E-1,4.348480339E0
7.250939926E0,-8.421301842E-1,-5.339585304E0,-6.141977310E-1,5.440367021E0
7.255883774E0,-1.055670261E0,-5.775465012E0,-5.921401978E-1,5.900937706E0
7.260858139E0,-1.334608078E0,-5.781789303E0,-6.495542526E-1,5.969270223E0
7.265832504E0,-1.683570862E0,-5.742584229E0,-5.866174698E-1,6.012969693E0
7.270776352E0,-1.916004181E0,-5.769561768E0,-5.223569870E-1,6.101784316E0
7.275750717E0,-2.141494751E0,-5.863649368E0,-4.625682831E-1,6.259580904E0
7.280725082E0,-2.301187515E0,-5.994399548E0,-4.040517807E-1,6.433626330E0
7.285699448E0,-2.434766769E0,-6.202251434E0,-2.710294724E-1,6.668543248E0
7.290673813E0,-2.547647476E0,-6.433811188E0,-1.342058182E-1,6.921159243E0
7.295617661E0,-2.724680901E0,-6.643471718E0,-5.492019653E-2,7.180711574E0
7.300592026E0,-2.924190283E0,-6.860115051E0,4.580688477E-2,7.457490570E0
7.305566391E0,-3.139447212E0,-6.982575417E0,1.006631851E-1,7.656541081E0
7.310510239E0,-3.300656557E0,-7.163241863E0,1.929330826E-1,7.889460747E0
7.315484604E0,-3.482505083E0,-7.357191086E0,2.946014404E-1,8.145114630E0
7.320458969E0,-3.647898912E0,-7.545170784E0,3.664789200E-1,8.388746953E0
7.325433334E0,-3.799151182E0,-7.716487885E0,4.041194916E-1,8.610519586E0
7.330377182E0,-3.947379112E0,-7.899055004E0,4.905147552E-1,8.844064481E0
7.335351547E0,-4.074893475E0,-8.127801895E0,5.818567276E-1,9.110679323E0
7.340325913E0,-4.227192879E0,-8.337963104E0,6.031627655E-1,9.367742187E0
7.345300278E0,-4.369946003E0,-8.549770355E0,6.457719803E-1,9.623514049E0
7.350244125E0,-4.466400146E0,-8.771654129E0,7.021417618E-1,9.868315433E0
7.355218491E0,-4.577139378E0,-9.044488907E0,7.747955322E-1,1.016628214E1
7.360192856E0,-4.644106865E0,-9.244306564E0,8.916254044E-1,1.038363753E1
7.365136704E0,-4.718158245E0,-9.413915634E0,1.052091599E0,1.058251962E1
7.370111069E0,-4.797048569E0,-9.606130600E0,1.083655357E0,1.079183622E1
7.375085434E0,-4.861872196E0,-9.893795967E0,1.077849388E0,1.107640552E1
7.380059799E0,-4.944587708E0,-1.009978867E1,1.138156891E0,1.130265809E1
7.385003647E0,-5.087187290E0,-1.023528481E1,1.110251427E0,1.148360517E1
7.389978012E0,-5.280074596E0,-1.045266438E1,1.092232704E0,1.176139246E1
7.394952377E0,-5.508764267E0,-1.068842506E1,9.403009415E-1,1.206122216E1
7.399926743E0,-5.713934422E0,-1.087620831E1,7.904958725E-1,1.231120780E1
7.404870590E0,-5.928467751E0,-1.108385658E1,6.601810455E-1,1.258707455E1
7.409844956E0,-6.075395107E0,-1.116030121E1,6.032981873E-1,1.272111306E1
7.414819321E0,-6.140314579E0,-1.155940437E1,5.383710861E-1,1.310011969E1
7.419793686E0,-6.238705635E0,-1.204656410E1,4.320116043E-1,1.357305377E1
7.424737534E0,-6.338271618E0,-1.240720940E1,3.473701477E-1,1.393675709E1
7.429711899E0,-6.432390213E0,-1.261341286E1,2.523136139E-1,1.416112601E1
7.434686264E0,-6.567668438E0,-1.272733879E1,2.408504486E-1,1.432401586E1
7.439660629E0,-6.694067955E0,-1.291881275E1,2.601623535E-1,1.455245523E1
7.444604477E0,-6.907287121E0,-1.301002312E1,2.760744095E-1,1.473253318E1
7.449578842E0,-7.054114819E0,-1.308673382E1,3.079833984E-1,1.487003671E1
7.454553207E0,-7.139573574E0,-1.328744316E1,3.867197037E-1,1.508904267E1
7.459527573E0,-7.101294518E0,-1.339735222E1,4.430913925E-1,1.516950099E1
7.464471420E0,-6.953903675E0,-1.343564129E1,7.190046310E-1,1.514563306E1
7.469445786E0,-7.000306129E0,-1.382180977E1,6.470756531E-1,1.550694741E1
7.474420151E0,-7.205127239E0,-1.443591404E1,5.401048660E-1,1.614314672E1
7.479363998E0,-7.412849426E0,-1.476548672E1,5.006828308E-1,1.652938650E1
7.484338364E0,-7.585560322E0,-1.497079754E1,5.058355331E-1,1.679051440E1
7.489312729E0,-7.712521553E0,-1.511767292E1,5.528669357E-1,1.698036175E1
7.494287094E0,-7.707825184E0,-1.527509117E1,6.558523178E-1,1.712218215E1
7.499230942E0,-7.643916130E0,-1.552991295E1,7.788143158E-1,1.732669044E1
7.504205307E0,-7.495179653E0,-1.571434784E1,9.070758820E-1,1.743391042E1
7.509179672E0,-7.381193161E0,-1.593568230E1,9.578580856E-1,1.758821978E1
7.514154038E0,-7.276776791E0,-1.609151649E1,1.041707993E0,1.769105817E1
7.519097885E0,-7.226154804E0,-1.610967064E1,1.172114372E0,1.769498950E1
7.524072250E0,-7.202625275E0,-1.621206474E1,1.246926308E0,1.778380385E1
7.529046616E0,-7.114702225E0,-1.640040398E1,1.337123871E0,1.792707836E1
7.534020981E0,-7.097428322E0,-1.659892273E1,1.308647156E0,1.810000779E1
7.538964829E0,-7.115749359E0,-1.681035614E1,1.241651535E0,1.829654779E1
7.543939194E0,-7.169706345E0,-1.698777008E1,1.214545250E0,1.847874838E1
7.548913559E0,-7.232140541E0,-1.713275146E1,1.259576797E0,1.863924793E1
7.553887924E0,-7.223279953E0,-1.733626175E1,1.318661690E0,1.882712441E1
7.558831772E0,-7.139276028E0,-1.755545616E1,1.352412224E0,1.899979795E1
7.563806137E0,-6.979525089E0,-1.768956757E1,1.421698570E0,1.906976135E1
7.568780502E0,-6.826145172E0,-1.785250854E1,1.493111610E0,1.917127282E1
7.573754868E0,-6.648211479E0,-1.799277496E1,1.589974403E0,1.924751115E1
7.578698715E0,-6.440991879E0,-1.815334129E1,1.706564426E0,1.933759392E1
7.583673081E0,-6.221009254E0,-1.839446259E1,1.845777035E0,1.950548904E1
7.588647446E0,-5.920076847E0,-1.858699989E1,1.859451294E0,1.959544422E1
7.593621811E0,-5.625030041E0,-1.872305298E1,1.895305634E0,1.964143221E1
7.598565659E0,-5.364210129E0,-1.881677246E1,1.927224636E0,1.966112588E1
7.603540024E0,-5.116244316E0,-1.884352875E1,2.014134407E0,1.962934714E1
7.608514389E0,-4.837775707E0,-1.861935425E1,2.140342236E0,1.935627783E1
7.613458237E0,-4.489688396E0,-1.896360016E1,2.245840073E0,1.961680990E1
7.618432602E0,-4.178563118E0,-1.956808853E1,2.182367802E0,2.012792110E1
7.623406967E0,-3.892610550E0,-1.980363655E1,2.163580418E0,2.029821464E1
7.628381332E0,-3.656933308E0,-1.969165230E1,2.273779392E0,2.015699393E1
7.633325180E0,-3.324007034E0,-1.957715988E1,2.450350285E0,2.000795912E1
7.638299545E0,-3.061600208E0,-1.972724724E1,2.599287987E0,2.013191440E1
7.643273911E0,-2.806416035E0,-1.999714088E1,2.650895596E0,2.036636595E1
7.648248276E0,-2.583651543E0,-2.020654106E1,2.712590218E0,2.055085649E1
7.653192123E0,-2.411237717E0,-2.036214066E1,2.874318123E0,2.070489179E1
7.658166489E0,-2.252506256E0,-2.046508026E1,3.051793575E0,2.081361906E1
7.663140854E0,-2.063877106E0,-2.044949532E1,3.217390060E0,2.080367867E1
7.668115219E0,-1.861372948E0,-2.046652985E1,3.407395601E0,2.083156014E1
7.673059067E0,-1.590609550E0,-2.045611572E1,3.467604399E0,2.080881999E1
7.678033432E0,-1.403552055E0,-2.048073006E1,3.467487335E0,2.081955164E1
7.683007797E0,-1.159112930E0,-2.053976440E1,3.407299757E0,2.085270141E1
7.687982163E0,-8.590621948E-1,-2.059925461E1,3.315380812E0,2.088202644E1
7.692956528E0,-5.695266724E-1,-2.062835121E1,3.165770531E0,2.087762768E1
7.697900375E0,-3.289127350E-1,-2.064600945E1,3.046329498E0,2.087213485E1
7.702874741E0,-9.318351746E-2,-2.069209290E1,2.952729702E0,2.090191389E1
7.707849106E0,9.840011597E-3,-2.070526695E1,2.876180649E0,2.090408074E1
7.712792954E0,4.181575775E-2,-2.068746376E1,2.866752625E0,2.088519035E1
7.717767319E0,6.633758545E-3,-2.068130112E1,2.822679520E0,2.087303954E1
7.722741684E0,-1.123399734E-1,-2.073268318E1,2.767406464E0,2.091686666E1
7.727685532E0,-2.589540482E-1,-2.064467621E1,2.695129156E0,2.082146571E1
7.732659897E0,-3.503961563E-1,-2.049171066E1,2.689899206E0,2.067047511E1
7.737634262E0,-3.359127045E-1,-2.051478767E1,2.730978251E0,2.069849253E1
7.742608627E0,-3.338756561E-1,-2.048776436E1,2.722329617E0,2.067053555E1
7.747552475E0,-2.445306778E-1,-2.034882927E1,2.643830776E0,2.052131792E1
7.752526840E0,-1.732702255E-1,-2.013864899E1,2.567149878E0,2.030235120E1
7.757501206E0,-1.293830872E-1,-2.003036308E1,2.561072350E0,2.019384255E1
7.762475571E0,-9.991550446E-2,-1.983825111E1,2.609119892E0,2.000934024E1
7.767419418E0,2.272701263E-2,-1.958069420E1,2.583699703E0,1.975043306E1
7.772393784E0,1.673030853E-1,-1.935281754E1,2.461982965E0,1.950950786E1
7.777368149E0,3.360910416E-1,-1.911493492E1,2.268190861E0,1.925197091E1
7.782342514E0,5.014429092E-1,-1.894382668E1,2.018111229E0,1.905761756E1
7.787286362E0,6.925945282E-1,-1.875752640E1,1.739720583E0,1.885075891E1
7.792260727E0,9.428062439E-1,-1.866349220E1,1.484639883E0,1.874617242E1
7.797235092E0,1.195101738E0,-1.852199745E1,1.216256142E0,1.860032088E1
7.802209457E0,1.457577705E0,-1.831754494E1,9.966251850E-1,1.840245220E1
7.807153305E0,1.733700752E0,-1.815488243E1,7.766435146E-1,1.825400366E1
7.812127670E0,1.871850014E0,-1.799146652E1,6.844384670E-1,1.810152331E1
7.817102036E0,1.893315315E0,-1.778942490E1,5.523529053E-1,1.789841822E1
7.822076401E0,1.960525513E0,-1.763935852E1,4.213671684E-1,1.775297664E1
7.827020248E0,1.966421127E0,-1.751686096E1,2.704176903E-1,1.762896355E1
7.831994614E0,2.029651642E0,-1.744972229E1,3.099164963E-1,1.757009795E1
7.836968979E0,2.098778725E0,-1.734449768E1,3.219695091E-1,1.747398456E1
7.841912827E0,1.997500896E0,-1.710301971E1,3.404026031E-1,1.722263531E1
7.846887192E0,1.933795452E0,-1.683839798E1,3.648915291E-1,1.695300437E1
7.851861557E0,1.864732265E0,-1.676852226E1,3.707876205E-1,1.687596068E1
7.856835922E0,1.950895309E0,-1.656489563E1,3.390364647E-1,1.668282666E1
7.861779770E0,1.804456711E0,-1.640114975E1,2.103934288E-1,1.650145577E1
7.866754135E0,1.649120331E0,-1.625615311E1,8.176789284E-1,1.636003394E1
7.871728500E0,1.667825222E0,-1.605925369E1,1.017635345E0,1.617766522E1
7.876702866E0,1.768862724E0,-1.586711693E1,1.361693382E0,1.602337305E1
7.881646713E0,1.939029694E0,-1.567633247E1,1.721943378E0,1.588937774E1
7.886621079E0,1.997056961E0,-1.543876457E1,2.009871006E0,1.569660057E1
7.891595444E0,2.017895699E0,-1.519466591E1,2.460464478E0,1.552429260E1
7.896569809E0,2.033569336E0,-1.492410469E1,2.823432922E0,1.532436226E1
7.901544174E0,2.020553589E0,-1.459699249E1,3.190343857E0,1.507757011E1
7.906488022E0,2.212019920E0,-1.440326023E1,3.442988396E0,1.497334654E1
7.911462387E0,2.335105419E0,-1.420689964E1,3.764160156E0,1.488145210E1
7.916436752E0,2.385318756E0,-1.380365562E1,4.170139790E0,1.461576957E1
7.921380600E0,2.451288223E0,-1.337757492E1,4.519796848E0,1.433167430E1
7.926354965E0,2.511816978E0,-1.309837341E1,4.856626511E0,1.419378144E1
7.931329331E0,2.553730965E0,-1.282509613E1,5.248859882E0,1.409096032E1
7.936303696E0,2.703214169E0,-1.244905472E1,5.555255890E0,1.389774076E1
7.941247543E0,2.872954369E0,-1.192765617E1,5.910223484E0,1.361813461E1
7.946221909E0,3.028884888E0,-1.125760651E1,6.201726437E0,1.320489526E1
7.951196274E0,3.136339188E0,-1.077010536E1,6.461236954E0,1.294524530E1
7.956140122E0,3.332599163E0,-1.048632717E1,6.727105618E0,1.289663618E1
7.961114487E0,3.580055714E0,-1.017129803E1,6.925238132E0,1.281526534E1
7.966088852E0,3.852090359E0,-9.619682312E0,7.021037579E0,1.251686289E1
7.971063217E0,4.072272301E0,-9.087844849E0,7.131251335E0,1.224855384E1
7.976007065E0,4.350548267E0,-8.666478157E0,7.331264973E0,1.215658505E1
7.980981430E0,4.649023533E0,-8.288314819E0,7.469490051E0,1.208730177E1
7.985955795E0,4.994429111E0,-7.487638474E0,7.461897373E0,1.169140558E1
7.990930161E0,5.048230648E0,-7.471534252E0,7.528031349E0,1.174647661E1
7.995904526E0,5.146568298E0,-7.109725475E0,7.479163170E0,1.153140249E1
8.000848373E0,5.228849888E0,-6.730430603E0,7.430760384E0,1.130733245E1
8.005822739E0,5.340428829E0,-6.370335102E0,7.398937702E0,1.112859508E1
8.010797104E0,5.435548782E0,-6.106703281E0,7.420457840E0,1.104084282E1
8.015771469E0,5.513238430E0,-5.935255527E0,7.381491184E0,1.095944653E1
8.020715317E0,5.548005104E0,-5.639337063E0,7.360114574E0,1.080526583E1
8.025689682E0,5.580571651E0,-5.276240826E0,7.444017410E0,1.069555480E1
8.030664047E0,5.636662483E0,-4.924118996E0,7.465063572E0,1.057100213E1
8.035607895E0,5.593865395E0,-4.638818741E0,7.426477432E0,1.039050222E1
8.040582260E0,5.604519367E0,-4.387173653E0,7.377426147E0,1.025106563E1
8.045556625E0,5.565750599E0,-4.154430866E0,7.273260593E0,1.005669902E1
8.050530991E0,5.509983063E0,-3.894455910E0,7.285643101E0,9.930120622E0
8.055474838E0,5.484722614E0,-3.675744534E0,7.266569138E0,9.818162102E0
8.060449204E0,5.395745277E0,-3.486235619E0,7.136036873E0,9.601610705E0
8.065423569E0,5.272513390E0,-3.281498432E0,7.080561638E0,9.418172992E0
8.070367416E0,5.121732712E0,-3.073426247E0,7.052607536E0,9.242151694E0
8.075341782E0,5.049851894E0,-2.892764091E0,7.015921593E0,9.115494723E0
8.080316147E0,4.984900475E0,-2.717403412E0,6.988620758E0,9.004128728E0
8.085290512E0,4.895358562E0,-2.561588287E0,6.936851501E0,8.868268081E0
8.090234360E0,4.850044727E0,-2.412948132E0,6.891160965E0,8.765463592E0
8.095208725E0,4.764485359E0,-2.246135712E0,6.881895065E0,8.666367524E0
8.100183090E0,4.689517498E0,-2.062301159E0,6.968877792E0,8.649272693E0
8.105157456E0,4.612626076E0,-1.951645851E0,7.039163113E0,8.639158418E0
8.110101303E0,4.565388203E0,-1.877113819E0,7.138953209E0,8.679342063E0
8.115075668E0,4.467850685E0,-1.823219776E0,7.165960312E0,8.639259649E0
8.120050034E0,4.386059284E0,-1.802503586E0,7.255305290E0,8.667525026E0
8.125024399E0,4.313355446E0,-1.775540829E0,7.413688183E0,8.759015522E0
8.129968247E0,4.296792030E0,-1.712512970E0,7.578904152E0,8.878902554E0
8.134942612E0,4.301857948E0,-1.665657520E0,7.779709816E0,9.044571941E0
8.139916977E0,4.279126167E0,-1.643902302E0,7.997214794E0,9.217851159E0
8.144860825E0,4.295353413E0,-1.654466152E0,8.250329971E0,9.447500401E0
8.149835190E0,4.332286358E0,-1.652091980E0,8.476959229E0,9.662140071E0
8.154809555E0,4.433588505E0,-1.643429756E0,8.671615601E0,9.876967425E0
