"Time (s)","Gyroscope x (rad/s)","Gyroscope y (rad/s)","Gyroscope z (rad/s)","Absolute (rad/s)"
0.000000000E0,-8.428955078E-2,-2.475128174E-1,8.795166016E-2,2.758673914E-1
2.502442000E-3,-8.216857910E-2,-2.496490479E-1,9.220886230E-2,2.785297054E-1
4.974366000E-3,-8.323669434E-2,-2.528381348E-1,1.028594971E-1,2.853691396E-1
7.446290000E-3,-7.896423340E-2,-2.592315674E-1,1.103210449E-1,2.925868907E-1
9.918213000E-3,-7.577514648E-2,-2.549743652E-1,1.103210449E-1,2.879662006E-1
1.239013700E-2,-7.151794434E-2,-2.528381348E-1,1.145782471E-1,2.866532984E-1
1.489257900E-2,-6.298828125E-2,-2.421875000E-1,1.167144775E-1,2.761242076E-1
1.736450200E-2,-5.659484863E-2,-2.294006348E-1,1.220397949E-1,2.659348410E-1
1.986694400E-2,-4.701232910E-2,-2.123565674E-1,1.209716797E-1,2.488767126E-1
2.233886800E-2,-3.742980957E-2,-1.942443848E-1,1.199035645E-1,2.313195548E-1
2.481079100E-2,-2.571105957E-2,-1.782684326E-1,1.188354492E-1,2.157835875E-1
2.731323300E-2,-1.824951172E-2,-1.558990479E-1,1.209716797E-1,1.981708987E-1
2.978515700E-2,-1.078796387E-2,-1.377868652E-1,1.209716797E-1,1.836729367E-1
3.228759800E-2,1.983642578E-3,-1.143646240E-1,1.188354492E-1,1.649395831E-1
3.475952200E-2,1.477050781E-2,-9.518432617E-2,1.188354492E-1,1.529708725E-1
3.723144600E-2,1.797485352E-2,-7.707214355E-2,1.156463623E-1,1.401331217E-1
3.973388700E-2,2.755737305E-2,-6.109619141E-2,1.135101318E-1,1.318207246E-1
4.220581100E-2,3.607177734E-2,-4.405212402E-2,1.124420166E-1,1.260355896E-1
4.467773500E-2,4.460144043E-2,-2.487182617E-2,1.081848145E-1,1.196321458E-1
4.718017600E-2,4.992675781E-2,-8.895874023E-3,1.060485840E-1,1.175504993E-1
4.965210000E-2,5.632019043E-2,7.080078125E-3,1.039276123E-1,1.184189172E-1
5.212402400E-2,6.057739258E-2,1.667785645E-2,9.860229492E-2,1.169195619E-1
5.462646500E-2,6.164550781E-2,2.200317383E-2,9.860229492E-2,1.183499931E-1
5.709838900E-2,6.483459473E-2,2.732849121E-2,9.327697754E-2,1.168373470E-1
5.957031300E-2,6.378173828E-2,3.158569336E-2,8.900451660E-2,1.139630209E-1
6.207275400E-2,6.378173828E-2,3.158569336E-2,9.007263184E-2,1.147991514E-1
6.454467800E-2,6.271362305E-2,3.691101074E-2,8.688354492E-2,1.133321296E-1
6.704712000E-2,5.950927734E-2,3.477478027E-2,9.220886230E-2,1.151221687E-1
6.951904300E-2,5.950927734E-2,3.051757812E-2,8.900451660E-2,1.113305018E-1
7.199096700E-2,5.632019043E-2,2.626037598E-2,9.007263184E-2,1.094287449E-1
7.449340900E-2,4.992675781E-2,1.560974121E-2,9.220886230E-2,1.060132985E-1
7.696533200E-2,5.099487305E-2,7.080078125E-3,9.114074707E-2,1.046768377E-1
7.946777400E-2,4.353332520E-2,-3.662109375E-4,9.646606445E-2,1.058347112E-1
8.193969800E-2,3.927612305E-2,-1.422119141E-2,9.646606445E-2,1.051216330E-1
8.441162200E-2,3.713989258E-2,-2.380371094E-2,9.432983398E-2,1.041350366E-1
8.691406300E-2,3.288269043E-2,-3.552246094E-2,9.539794922E-2,1.069760968E-1
8.938598700E-2,2.862548828E-2,-4.937744141E-2,9.539794922E-2,1.111679766E-1
9.188842800E-2,2.542114258E-2,-5.577087402E-2,9.860229492E-2,1.160992569E-1
9.436035200E-2,2.223205566E-2,-6.002807617E-2,9.753417969E-2,1.166642637E-1
9.683227600E-2,2.009582520E-2,-6.535339355E-2,9.646606445E-2,1.182396288E-1
9.933471700E-2,1.690673828E-2,-7.388305664E-2,9.646606445E-2,1.226794418E-1
1.018066410E-1,1.583862305E-2,-7.814025879E-2,9.967041016E-2,1.276360164E-1
1.042785650E-1,8.377075195E-3,-7.920837402E-2,9.967041016E-2,1.275865689E-1
1.067810060E-1,5.187988281E-3,-8.239746094E-2,9.646606445E-2,1.269722741E-1
1.092529300E-1,3.051757812E-3,-8.132934570E-2,9.646606445E-2,1.262120331E-1
1.117248540E-1,3.051757812E-3,-8.560180664E-2,9.646606445E-2,1.290065274E-1
1.142272950E-1,3.051757812E-3,-8.879089355E-2,9.539794922E-2,1.303606717E-1
1.166992190E-1,1.983642578E-3,-9.092712402E-2,9.327697754E-2,1.302776698E-1
1.192016610E-1,4.119873047E-3,-9.518432617E-2,9.114074707E-2,1.318471277E-1
1.216735840E-1,4.119873047E-3,-9.411621094E-2,9.007263184E-2,1.303376903E-1
1.241455080E-1,6.256103516E-3,-9.411621094E-2,8.688354492E-2,1.282409855E-1
1.266479500E-1,1.158142090E-2,-8.985900879E-2,8.688354492E-2,1.255289654E-1
1.291198740E-1,1.264953613E-2,-9.092712402E-2,8.795166016E-2,1.271347599E-1
1.315917970E-1,1.690673828E-2,-9.092712402E-2,8.688354492E-2,1.268949568E-1
1.340942390E-1,2.009582520E-2,-9.197998047E-2,8.367919922E-2,1.259617695E-1
1.365661630E-1,2.330017090E-2,-8.665466309E-2,8.367919922E-2,1.226953014E-1
1.390380860E-1,2.648925781E-2,-8.453369141E-2,8.155822754E-2,1.204133308E-1
1.415405280E-1,2.862548828E-2,-8.665466309E-2,8.155822754E-2,1.223936015E-1
1.440124520E-1,3.074645996E-2,-8.560180664E-2,8.155822754E-2,1.221669292E-1
1.465148930E-1,3.288269043E-2,-8.026123047E-2,7.942199707E-2,1.176052298E-1
1.489868170E-1,3.713989258E-2,-8.239746094E-2,7.728576660E-2,1.189193126E-1
1.514587410E-1,4.460144043E-2,-8.985900879E-2,7.516479492E-2,1.253542035E-1
1.539611820E-1,5.950927734E-2,-9.304809570E-2,7.090759277E-2,1.312523863E-1
1.564331060E-1,5.845642090E-2,-1.005096436E-1,6.770324707E-2,1.345476542E-1
1.589355470E-1,6.057739258E-2,-9.304809570E-2,6.663513184E-2,1.294905765E-1
1.614074710E-1,6.590270996E-2,-9.411621094E-2,6.344604492E-2,1.312494913E-1
1.638793950E-1,6.378173828E-2,-9.197998047E-2,6.130981445E-2,1.276217861E-1
1.663818360E-1,6.164550781E-2,-8.239746094E-2,6.344604492E-2,1.208921454E-1
1.688537600E-1,6.378173828E-2,-7.174682617E-2,6.130981445E-2,1.139061480E-1
1.713256840E-1,6.378173828E-2,-6.428527832E-2,5.491638184E-2,1.059080551E-1
1.738281250E-1,6.590270996E-2,-5.683898926E-2,5.065917969E-2,1.006985122E-1
1.763000490E-1,6.378173828E-2,-5.044555664E-2,4.747009277E-2,9.416089438E-2
1.787719730E-1,6.483459473E-2,-4.298400879E-2,4.852294922E-2,9.168220267E-2
1.812744150E-1,6.697082520E-2,-4.084777832E-2,4.640197754E-2,9.114151601E-2
1.837463380E-1,6.697082520E-2,-3.979492188E-2,4.319763184E-2,8.907728459E-2
1.862487800E-1,6.483459473E-2,-3.979492188E-2,3.787231445E-2,8.497924854E-2
1.887207040E-1,6.910705566E-2,-3.019714355E-2,3.147888184E-2,8.172253437E-2
1.911926270E-1,7.015991211E-2,-2.487182617E-2,2.722167969E-2,7.925932658E-2
1.936950690E-1,7.015991211E-2,-2.380371094E-2,3.254699707E-2,8.092179521E-2
1.961669930E-1,7.229614258E-2,-1.635742188E-2,2.510070801E-2,7.825818184E-2
1.986389160E-1,7.122802734E-2,-7.827758789E-3,1.763916016E-2,7.379597318E-2
2.011413580E-1,6.803894043E-2,3.890991211E-3,1.870727539E-2,7.067106466E-2
2.036132820E-1,7.229614258E-2,1.347351074E-2,1.763916016E-2,7.562676573E-2
2.060852060E-1,7.229614258E-2,1.560974121E-2,1.550292969E-2,7.556941896E-2
2.085876470E-1,7.336425781E-2,1.879882812E-2,1.550292969E-2,7.730492282E-2
2.110595710E-1,7.336425781E-2,1.986694336E-2,1.763916016E-2,7.802659632E-2
2.135620120E-1,7.336425781E-2,2.412414551E-2,1.763916016E-2,7.921760342E-2
2.160339360E-1,7.122802734E-2,2.519226074E-2,1.550292969E-2,7.712601837E-2
2.185058600E-1,6.483459473E-2,2.093505859E-2,1.443481445E-2,6.964312759E-2
2.210083010E-1,6.590270996E-2,2.412414551E-2,1.443481445E-2,7.164848529E-2
2.234802250E-1,6.803894043E-2,2.093505859E-2,1.550292969E-2,7.285543852E-2
2.259521490E-1,6.910705566E-2,1.986694336E-2,1.338195801E-2,7.314066845E-2
2.284545900E-1,6.697082520E-2,1.347351074E-2,1.231384277E-2,6.941367043E-2
2.309265140E-1,6.057739258E-2,1.133728027E-2,1.124572754E-2,6.264679404E-2
2.334289560E-1,6.164550781E-2,1.133728027E-2,1.017761230E-2,6.350028622E-2
2.359008790E-1,6.378173828E-2,1.133728027E-2,1.124572754E-2,6.575036464E-2
2.383728030E-1,6.164550781E-2,1.560974121E-2,1.338195801E-2,6.498391689E-2
2.408752450E-1,5.738830566E-2,2.093505859E-2,1.231384277E-2,6.231633036E-2
2.433471680E-1,4.992675781E-2,1.986694336E-2,1.443481445E-2,5.563937861E-2
2.458190920E-1,4.779052734E-2,2.305603027E-2,1.231384277E-2,5.447151329E-2
2.483215340E-1,4.353332520E-2,2.305603027E-2,1.443481445E-2,5.133317449E-2
2.507934570E-1,4.246520996E-2,2.093505859E-2,9.109497070E-3,4.821362538E-2
2.532958990E-1,4.141235352E-2,1.773071289E-2,8.056640625E-3,4.576320205E-2
2.557678230E-1,3.713989258E-2,1.240539551E-2,5.920410156E-3,3.960197867E-2
2.582397470E-1,3.820800781E-2,9.216308594E-3,4.852294922E-3,3.960223442E-2
2.607421880E-1,4.034423828E-2,9.216308594E-3,1.663208008E-3,4.141695507E-2
2.632141120E-1,3.501892090E-2,1.667785645E-2,1.663208008E-3,3.882321441E-2
2.656860360E-1,3.713989258E-2,1.560974121E-2,1.663208008E-3,4.032123389E-2
2.681579590E-1,3.713989258E-2,1.240539551E-2,3.784179688E-3,3.933936291E-2
2.706604010E-1,3.181457520E-2,1.560974121E-2,1.663208008E-3,3.547671738E-2
2.731628420E-1,3.181457520E-2,2.519226074E-2,-4.730224609E-4,4.058375225E-2
2.756347660E-1,3.288269043E-2,2.838134766E-2,5.950927734E-4,4.344106767E-2
2.781066900E-1,3.713989258E-2,2.626037598E-2,-1.541137695E-3,4.551213105E-2
2.806091310E-1,3.395080566E-2,3.477478027E-2,-4.730224609E-4,4.860212237E-2
2.830810550E-1,3.501892090E-2,3.904724121E-2,-1.541137695E-3,5.247272599E-2
2.855529790E-1,3.607177734E-2,4.223632812E-2,-4.730224609E-3,5.574455632E-2
2.880249030E-1,3.927612305E-2,4.330444336E-2,-2.609252930E-3,5.852090957E-2
2.905273440E-1,3.927612305E-2,4.756164551E-2,-2.609252930E-3,6.173760739E-2
2.929992680E-1,3.713989258E-2,4.223632812E-2,-2.609252930E-3,5.630352773E-2
2.955017090E-1,3.607177734E-2,4.437255859E-2,-1.541137695E-3,5.720552580E-2
2.979736330E-1,3.820800781E-2,4.649353027E-2,-3.662109375E-3,6.029022527E-2
3.004760750E-1,3.820800781E-2,4.437255859E-2,-4.730224609E-3,5.874649642E-2
3.029479990E-1,3.607177734E-2,4.649353027E-2,-2.609252930E-3,5.890356253E-2
3.054199220E-1,3.288269043E-2,5.288696289E-2,-5.798339844E-3,6.254536688E-2
3.078918460E-1,3.501892090E-2,5.181884766E-2,-7.934570312E-3,6.304343899E-2
3.103942880E-1,3.501892090E-2,4.969787598E-2,-8.987426758E-3,6.145711950E-2
3.128967290E-1,3.501892090E-2,5.076599121E-2,-1.005554199E-2,6.248699552E-2
3.153686530E-1,3.607177734E-2,5.288696289E-2,-8.987426758E-3,6.464501376E-2
3.178405770E-1,3.395080566E-2,4.756164551E-2,-8.987426758E-3,5.912310182E-2
3.203430180E-1,3.288269043E-2,4.649353027E-2,-8.987426758E-3,5.765148330E-2
3.228149420E-1,3.607177734E-2,4.969787598E-2,-1.112365723E-2,6.240823461E-2
3.252868660E-1,3.713989258E-2,4.862976074E-2,-1.219177246E-2,6.239282464E-2
3.277587900E-1,3.713989258E-2,5.288696289E-2,-1.325988770E-2,6.597141113E-2
3.302612310E-1,4.034423828E-2,5.714416504E-2,-1.325988770E-2,7.119647310E-2
3.327331550E-1,4.460144043E-2,6.141662598E-2,-8.987426758E-3,7.643339764E-2
3.352355960E-1,4.566955566E-2,7.099914551E-2,-6.866455078E-3,8.469790542E-2
3.377075200E-1,4.673767090E-2,7.525634766E-2,-7.934570312E-3,8.894315685E-2
3.402099610E-1,4.460144043E-2,7.951354980E-2,-7.934570312E-3,9.151311653E-2
3.426818850E-1,4.460144043E-2,8.485412598E-2,-8.987426758E-3,9.628231937E-2
3.451538090E-1,4.460144043E-2,8.911132812E-2,-6.866455078E-3,9.988626279E-2
3.476257330E-1,4.566955566E-2,9.017944336E-2,-6.866455078E-3,1.013172667E-1
3.501281740E-1,4.460144043E-2,9.657287598E-2,-6.866455078E-3,1.065962338E-1
3.526000980E-1,4.141235352E-2,9.550476074E-2,-7.934570312E-3,1.043987536E-1
3.551025400E-1,3.927612305E-2,9.657287598E-2,-8.987426758E-3,1.046408527E-1
3.575744630E-1,4.034423828E-2,9.550476074E-2,-1.219177246E-2,1.043908818E-1
3.600769050E-1,3.607177734E-2,9.550476074E-2,-1.432800293E-2,1.030903687E-1
3.625488290E-1,3.288269043E-2,9.550476074E-2,-1.858520508E-2,1.027026801E-1
3.650207520E-1,2.969360352E-2,9.657287598E-2,-2.603149414E-2,1.043344102E-1
3.674926760E-1,2.862548828E-2,9.869384766E-2,-2.816772461E-2,1.065519350E-1
3.699951180E-1,2.436828613E-2,9.869384766E-2,-2.923583984E-2,1.057781795E-1
3.724670410E-1,1.902770996E-2,9.976196289E-2,-3.137207031E-2,1.062953893E-1
3.749694830E-1,1.264953613E-2,1.072235107E-1,-3.349304199E-2,1.130428055E-1
3.774414070E-1,4.119873047E-3,1.104125977E-1,-3.349304199E-2,1.154543154E-1
3.799133310E-1,-3.341674805E-3,1.050872803E-1,-3.349304199E-2,1.103462148E-1
3.824157720E-1,-1.078796387E-2,1.029510498E-1,-3.669738770E-2,1.098271236E-1
3.848876960E-1,-1.611328125E-2,1.061553955E-1,-3.456115723E-2,1.127966286E-1
3.873596200E-1,-2.250671387E-2,1.008300781E-1,-3.137207031E-2,1.079697347E-1
3.898620610E-1,-2.571105957E-2,9.869384766E-2,-3.137207031E-2,1.067039875E-1
3.923339850E-1,-2.783203125E-2,9.869384766E-2,-3.137207031E-2,1.072348093E-1
3.948364260E-1,-3.103637695E-2,9.443664551E-2,-3.137207031E-2,1.042388771E-1
3.973083500E-1,-3.210449219E-2,9.230041504E-2,-2.709960938E-2,1.014122964E-1
3.998107910E-1,-3.422546387E-2,9.657287598E-2,-3.030395508E-2,1.068458349E-1
4.022827150E-1,-3.742980957E-2,9.762573242E-2,-2.709960938E-2,1.080100139E-1
4.047546390E-1,-4.168701172E-2,9.657287598E-2,-2.391052246E-2,1.078695527E-1
4.072265630E-1,-4.275512695E-2,9.869384766E-2,-2.070617676E-2,1.095318319E-1
4.097290040E-1,-4.594421387E-2,1.018981934E-1,-1.538085938E-2,1.128303303E-1
4.122009280E-1,-4.594421387E-2,1.018981934E-1,-1.005554199E-2,1.122284568E-1
4.147033700E-1,-3.955078125E-2,1.072235107E-1,-5.798339844E-3,1.144323656E-1
4.171752930E-1,-4.382324219E-2,1.136169434E-1,-4.730224609E-4,1.217764761E-1
4.196472170E-1,-4.061889648E-2,1.157379150E-1,5.920410156E-3,1.228015105E-1
4.221496590E-1,-4.061889648E-2,1.189422607E-1,1.338195801E-2,1.263971239E-1
4.246215820E-1,-4.275512695E-2,1.221313477E-1,1.657104492E-2,1.304556112E-1
4.270935060E-1,-4.701232910E-2,1.306610107E-1,2.189636230E-2,1.405770589E-1
4.295959480E-1,-4.487609863E-2,1.391754150E-1,2.296447754E-2,1.480237400E-1
4.320678720E-1,-4.914855957E-2,1.487579346E-1,2.935791016E-2,1.593938233E-1
4.345703130E-1,-5.873107910E-2,1.615447998E-1,2.935791016E-2,1.743787512E-1
4.370422370E-1,-6.724548340E-2,1.732635498E-1,3.042602539E-2,1.883293810E-1
4.395141610E-1,-7.257080078E-2,1.828460693E-1,3.042602539E-2,1.990601648E-1
4.420166020E-1,-7.257080078E-2,1.998901367E-1,2.615356445E-2,2.142582480E-1
4.444885260E-1,-7.257080078E-2,2.116088867E-1,3.042602539E-2,2.257666607E-1
4.469604500E-1,-7.896423340E-2,2.286529541E-1,3.254699707E-2,2.440836549E-1
4.494628910E-1,-9.281921387E-2,2.446441650E-1,3.787231445E-2,2.643870007E-1
4.519348150E-1,-1.098632812E-1,2.563476562E-1,3.681945801E-2,2.813178521E-1
4.544372560E-1,-1.226501465E-1,2.648773193E-1,3.254699707E-2,2.937045450E-1
4.569091800E-1,-1.311645508E-1,2.691345215E-1,2.828979492E-2,3.007288522E-1
4.593811040E-1,-1.450195312E-1,2.691345215E-1,2.828979492E-2,3.070250276E-1
4.618835450E-1,-1.556701660E-1,2.648773193E-1,2.189636230E-2,3.080140347E-1
4.643554690E-1,-1.673889160E-1,2.552947998E-1,1.338195801E-2,3.055708769E-1
4.668273930E-1,-1.886901855E-1,2.456970215E-1,1.124572754E-2,3.099959336E-1
4.693298340E-1,-1.982727051E-1,2.382507324E-1,1.657104492E-2,3.104030873E-1
4.718017580E-1,-2.153167725E-1,2.254638672E-1,1.550292969E-2,3.121467744E-1
4.743042000E-1,-2.281036377E-1,2.084197998E-1,1.870727539E-2,3.095481298E-1
4.767761240E-1,-2.408905029E-1,1.945648193E-1,2.082824707E-2,3.103506391E-1
4.792480470E-1,-2.547454834E-1,1.828460693E-1,2.296447754E-2,3.144126486E-1
4.817504890E-1,-2.685852051E-1,1.743316650E-1,2.615356445E-2,3.212686582E-1
4.842224130E-1,-2.813720703E-1,1.647491455E-1,2.935791016E-2,3.273750293E-1
4.866943360E-1,-2.952117920E-1,1.551513672E-1,3.361511230E-2,3.351893862E-1
4.891967780E-1,-3.112030029E-1,1.445007324E-1,4.107666016E-2,3.455648459E-1
4.916687020E-1,-3.261108398E-1,1.391754150E-1,4.319763184E-2,3.571891815E-1
4.941711430E-1,-3.410186768E-1,1.359863281E-1,4.852294922E-2,3.703248519E-1
4.966430670E-1,-3.559417725E-1,1.295928955E-1,5.172729492E-2,3.823147617E-1
4.991149910E-1,-3.655242920E-1,1.253204346E-1,5.172729492E-2,3.898575796E-1
5.016174320E-1,-3.687286377E-1,1.285247803E-1,5.279541016E-2,3.940390624E-1
5.040893560E-1,-3.783111572E-1,1.295928955E-1,5.279541016E-2,4.033621271E-1
5.065612800E-1,-3.910980225E-1,1.317138672E-1,5.386352539E-2,4.161820339E-1
5.090637210E-1,-4.006805420E-1,1.370391846E-1,5.705261230E-2,4.272933833E-1
5.115356450E-1,-4.113311768E-1,1.434326172E-1,5.812072754E-2,4.394818217E-1
5.140380860E-1,-4.241180420E-1,1.530303955E-1,5.705261230E-2,4.544770798E-1
5.165100100E-1,-4.347686768E-1,1.583557129E-1,6.451416016E-2,4.671856279E-1
5.189819340E-1,-4.475555420E-1,1.604766846E-1,7.623291016E-2,4.815290085E-1
5.214843750E-1,-4.624633789E-1,1.636810303E-1,8.049011230E-2,4.971343025E-1
5.239562990E-1,-4.837646484E-1,1.658020020E-1,8.367919922E-2,5.181898757E-1
5.264282230E-1,-4.986877441E-1,1.732635498E-1,8.474731445E-2,5.346885366E-1
5.289306650E-1,-5.189208984E-1,1.871185303E-1,7.623291016E-2,5.568695537E-1
5.314025880E-1,-5.402221680E-1,1.998901367E-1,7.090759277E-2,5.803653541E-1
5.339050300E-1,-5.540771484E-1,2.126770020E-1,6.451416016E-2,5.969883336E-1
5.363769540E-1,-5.700531006E-1,2.254638672E-1,5.705261230E-2,6.156699550E-1
5.388488770E-1,-5.870971680E-1,2.552947998E-1,3.894042969E-2,6.413851234E-1
5.413513190E-1,-5.924224854E-1,2.819213867E-1,2.082824707E-2,6.564128924E-1
5.438232430E-1,-5.956268311E-1,3.064270020E-1,1.017761230E-2,6.699047792E-1
5.462951660E-1,-6.030731201E-1,3.277282715E-1,6.988525391E-3,6.864050172E-1
5.487976080E-1,-6.116027832E-1,3.511657715E-1,9.109497070E-3,7.053072709E-1
5.512695320E-1,-6.190643311E-1,3.724670410E-1,1.763916016E-2,7.226918310E-1
5.537719730E-1,-6.307830811E-1,3.852539062E-1,1.870727539E-2,7.393631244E-1
5.562438970E-1,-6.361083984E-1,4.022979736E-1,1.977539062E-2,7.529067806E-1
5.587158210E-1,-6.467590332E-1,4.204101562E-1,1.870727539E-2,7.716164259E-1
5.612182620E-1,-6.552734375E-1,4.342498779E-1,1.231384277E-2,7.861983624E-1
5.636901860E-1,-6.669921875E-1,4.417114258E-1,8.056640625E-3,8.000327939E-1
5.661621100E-1,-6.765899658E-1,4.342498779E-1,5.920410156E-3,8.039788490E-1
5.686645510E-1,-6.840362549E-1,4.321289062E-1,8.056640625E-3,8.091389862E-1
5.711364750E-1,-6.904296875E-1,4.257354736E-1,1.443481445E-2,8.112658077E-1
5.736389160E-1,-6.957550049E-1,4.097595215E-1,2.082824707E-2,8.077200679E-1
5.761108400E-1,-6.925659180E-1,3.916473389E-1,2.722167969E-2,7.961006272E-1
5.785827640E-1,-6.882934570E-1,3.777923584E-1,3.361511230E-2,7.858784415E-1
5.810852060E-1,-6.765899658E-1,3.660736084E-1,3.575134277E-2,7.701052052E-1
5.835571290E-1,-6.605987549E-1,3.405151367E-1,4.214477539E-2,7.443906605E-1
5.860290530E-1,-6.392974854E-1,3.128204346E-1,4.533386230E-2,7.131711282E-1
5.885314950E-1,-6.243896484E-1,2.851104736E-1,5.065917969E-2,6.882708535E-1
5.910034180E-1,-6.052093506E-1,2.510223389E-1,5.705261230E-2,6.576819697E-1
5.935058600E-1,-5.743103027E-1,2.158813477E-1,6.983947754E-2,6.175067876E-1
5.959777840E-1,-5.476837158E-1,1.732635498E-1,8.261108398E-2,5.803467080E-1
5.984497070E-1,-5.178527832E-1,1.338500977E-1,9.753417969E-2,5.436913370E-1
6.009521490E-1,-4.848327637E-1,9.976196289E-2,1.124420166E-1,5.076006945E-1
6.034240730E-1,-4.539489746E-1,7.951354980E-2,1.273651123E-1,4.781359095E-1
6.058959970E-1,-4.187927246E-1,6.993103027E-2,1.326904297E-1,4.448420454E-1
6.083984380E-1,-3.857727051E-1,6.034851074E-2,1.454620361E-1,4.166794052E-1
6.108703620E-1,-3.495483398E-1,5.076599121E-2,1.593170166E-1,3.874830829E-1
6.133728030E-1,-3.197174072E-1,3.372192383E-2,1.731719971E-1,3.651642496E-1
6.158447270E-1,-2.813720703E-1,3.890991211E-3,1.902160645E-1,3.396579646E-1
6.183166510E-1,-2.451477051E-1,-3.659057617E-2,2.147064209E-1,3.279254713E-1
6.208190920E-1,-2.089385986E-1,-7.707214355E-2,2.392120361E-1,3.268300040E-1
6.232910160E-1,-1.822967529E-1,-1.058349609E-1,2.658386230E-1,3.392687999E-1
6.257629400E-1,-1.641845703E-1,-1.186218262E-1,2.967376709E-1,3.592783825E-1
6.282653810E-1,-1.524658203E-1,-1.260681152E-1,3.286895752E-1,3.836350256E-1
6.307373050E-1,-1.471405029E-1,-1.303405762E-1,3.681030273E-1,4.172994514E-1
6.332397470E-1,-1.418151855E-1,-1.377868652E-1,4.064636230E-1,4.520060220E-1
6.357116700E-1,-1.343688965E-1,-1.409912109E-1,4.458770752E-1,4.865592339E-1
6.381835940E-1,-1.258392334E-1,-1.409912109E-1,4.767608643E-1,5.128498376E-1
6.406860360E-1,-1.258392334E-1,-1.388549805E-1,5.108489990E-1,5.441350182E-1
6.431579590E-1,-1.205139160E-1,-1.345977783E-1,5.417480469E-1,5.710789019E-1
6.456298830E-1,-1.109313965E-1,-1.345977783E-1,5.673065186E-1,5.935141301E-1
6.481323250E-1,-1.098632812E-1,-1.409912109E-1,5.960693359E-1,6.222918249E-1
6.506042490E-1,-1.024017334E-1,-1.665496826E-1,6.216430664E-1,6.516632672E-1
6.531066900E-1,-1.013336182E-1,-2.006378174E-1,6.482696533E-1,6.861323337E-1
6.555786140E-1,-1.045379639E-1,-2.091674805E-1,6.663818359E-1,7.062180768E-1
6.580505380E-1,-1.130523682E-1,-1.867980957E-1,6.844940186E-1,7.184750712E-1
6.605529790E-1,-1.322326660E-1,-1.601562500E-1,7.036743164E-1,7.336845684E-1
6.630249030E-1,-1.396942139E-1,-1.388549805E-1,7.196502686E-1,7.461177441E-1
6.654968270E-1,-1.482086182E-1,-1.186218262E-1,7.345581055E-1,7.586913354E-1
6.679992680E-1,-1.609954834E-1,-9.730529785E-2,7.494812012E-1,7.727288901E-1
6.704711920E-1,-1.780395508E-1,-8.132934570E-2,7.611846924E-1,7.859482680E-1
6.729431160E-1,-1.918945312E-1,-6.321716309E-2,7.665252686E-1,7.927048052E-1
6.754455570E-1,-2.121276855E-1,-4.617309570E-2,7.654571533E-1,7.956473863E-1
6.779174810E-1,-2.355651855E-1,-3.126525879E-2,7.643890381E-1,8.004742810E-1
6.804199220E-1,-2.590026855E-1,-2.168273926E-2,7.579956055E-1,8.013175839E-1
6.828918460E-1,-2.813720703E-1,-1.315307617E-2,7.494812012E-1,8.006655458E-1
6.853637700E-1,-3.090667725E-1,-7.827758789E-3,7.398834229E-1,8.018796812E-1
6.878662110E-1,-3.420867920E-1,-1.103210449E-2,7.303009033E-1,8.065261868E-1
6.903381350E-1,-3.772430420E-1,-1.103210449E-2,7.153930664E-1,8.088394523E-1
6.928100590E-1,-4.145355225E-1,-1.635742188E-2,7.015380859E-1,8.150232823E-1
6.953125000E-1,-4.518127441E-1,-3.019714355E-2,6.844940186E-1,8.207183955E-1
6.977844240E-1,-4.944152832E-1,-4.830932617E-2,6.685180664E-1,8.328845468E-1
7.002868660E-1,-5.338439941E-1,-6.535339355E-2,6.557312012E-1,8.480824750E-1
7.027587900E-1,-5.764465332E-1,-9.197998047E-2,6.429443359E-1,8.684056319E-1
7.052307130E-1,-6.201171875E-1,-1.132965088E-1,6.259002686E-1,8.883313409E-1
7.077331550E-1,-6.627349854E-1,-1.260681152E-1,6.099243164E-1,9.094605556E-1
7.102050790E-1,-7.064056396E-1,-1.484527588E-1,5.939483643E-1,9.347843648E-1
7.126770020E-1,-7.522125244E-1,-1.633605957E-1,5.800933838E-1,9.638561615E-1
7.151794440E-1,-7.863006592E-1,-1.505737305E-1,5.673065186E-1,9.812124443E-1
7.176513680E-1,-8.214569092E-1,-1.377868652E-1,5.609283447E-1,1.004199822E0
7.201538090E-1,-8.534240723E-1,-1.207427979E-1,5.609283447E-1,1.028373511E0
7.226257330E-1,-8.789825439E-1,-8.239746094E-2,5.662536621E-1,1.048829283E0
7.250976570E-1,-9.045562744E-1,-1.434326172E-3,5.715789795E-1,1.070012449E0
7.276000980E-1,-9.279785156E-1,1.008300781E-1,5.790252686E-1,1.098444851E0
7.300720220E-1,-9.535522461E-1,2.222595215E-1,5.822296143E-1,1.139145515E0
7.325439460E-1,-9.674072266E-1,3.554229736E-1,5.875549316E-1,1.186348612E0
7.350463870E-1,-9.780578613E-1,4.949798584E-1,5.960693359E-1,1.247758347E0
7.375183110E-1,-9.897766113E-1,6.462402344E-1,6.003417969E-1,1.325780696E0
7.400207520E-1,-9.982910156E-1,8.230743408E-1,6.067352295E-1,1.429043023E0
7.424926760E-1,-1.002548218E0,1.015884399E0,6.227111816E-1,1.557206877E0
7.449646000E-1,-1.007873535E0,1.225738525E0,6.397552490E-1,1.711002856E0
7.474670410E-1,-1.007873535E0,1.435607910E0,6.663818359E-1,1.876391187E0
7.499389650E-1,-1.003616333E0,1.577285767E0,7.356262207E-1,2.009035109E0
7.524108890E-1,-1.002548218E0,1.639068604E0,7.750396729E-1,2.071795190E0
7.549133310E-1,-1.006820679E0,1.823364258E0,7.633209229E-1,2.218333592E0
7.573852540E-1,-1.002548218E0,2.082214355E0,7.601318359E-1,2.432800847E0
7.598571780E-1,-9.951019287E-1,2.395401001E0,7.558593750E-1,2.701758168E0
7.623596200E-1,-9.812469482E-1,2.692611694E0,7.526702881E-1,2.963024784E0
7.648315430E-1,-9.716644287E-1,2.922714233E0,7.537384033E-1,3.170885024E0
7.673339850E-1,-9.769897461E-1,3.045211792E0,7.686462402E-1,3.289170240E0
7.698059090E-1,-9.918975830E-1,3.118713379E0,7.814331055E-1,3.364650302E0
7.722778320E-1,-9.951019287E-1,3.232696533E0,7.942199707E-1,3.474383411E0
7.747802740E-1,-9.972229004E-1,3.349884033E0,8.144531250E-1,3.588803483E0
7.772521980E-1,-1.002548218E0,3.403152466E0,8.251037598E-1,3.642436801E0
7.797241220E-1,-1.016403198E0,3.410598755E0,8.389587402E-1,3.656379507E0
7.822265630E-1,-1.021728516E0,3.430847168E0,8.570709229E-1,3.680925429E0
7.846984870E-1,-1.033447266E0,3.450012207E0,8.698425293E-1,3.705026789E0
7.872009280E-1,-1.045166016E0,3.435104370E0,8.847656250E-1,3.697989216E0
7.896728520E-1,-1.063278198E0,3.397827148E0,9.007415771E-1,3.672482164E0
7.921447760E-1,-1.087768555E0,3.370117188E0,9.135284424E-1,3.657248214E0
7.946472170E-1,-1.111206055E0,3.346679688E0,9.252471924E-1,3.645699685E0
7.971191410E-1,-1.135711670E0,3.300888062E0,9.390869141E-1,3.614911786E0
7.995910650E-1,-1.162338257E0,3.246551514E0,9.550628662E-1,3.578166015E0
8.020935060E-1,-1.186843872E0,3.196487427E0,9.742431641E-1,3.546164123E0
8.045654300E-1,-1.203887939E0,3.138961792E0,9.944915771E-1,3.505915116E0
8.070678720E-1,-1.219863892E0,3.083572388E0,1.018981934E0,3.469122478E0
8.095397950E-1,-1.228393555E0,3.026046753E0,1.037094116E0,3.426583412E0
8.120117190E-1,-1.229461670E0,2.977035522E0,1.055206299E0,3.389362305E0
8.145141610E-1,-1.231582642E0,2.932296753E0,1.074386597E0,3.357002623E0
8.169860840E-1,-1.229461670E0,2.892883301E0,1.088226318E0,3.326347292E0
8.194580080E-1,-1.233718872E0,2.857727051E0,1.106338501E0,3.303430192E0
8.219604500E-1,-1.237976074E0,2.832168579E0,1.114852905E0,3.285827235E0
8.244323740E-1,-1.252883911E0,2.811920166E0,1.131896973E0,3.279909125E0
8.269348150E-1,-1.272064209E0,2.797012329E0,1.146820068E0,3.279728890E0
8.294067390E-1,-1.291244507E0,2.779968262E0,1.164932251E0,3.279116201E0
8.318786630E-1,-1.315734863E0,2.762924194E0,1.178771973E0,3.279391971E0
8.343811040E-1,-1.338119507E0,2.736297607E0,1.202209473E0,3.274629143E0
8.368530280E-1,-1.366867065E0,2.691543579E0,1.234176636E0,3.261276496E0
8.393249520E-1,-1.395629883E0,2.645736694E0,1.238433838E0,3.237502710E0
8.418273930E-1,-1.422271729E0,2.634017944E0,1.236297607E0,3.238724930E0
8.442993170E-1,-1.446762085E0,2.646804810E0,1.230972290E0,3.257911756E0
8.468017580E-1,-1.469146729E0,2.654266357E0,1.217132568E0,3.268781684E0
8.492736820E-1,-1.493637085E0,2.628692627E0,1.214996338E0,3.258403408E0
8.517456060E-1,-1.525604248E0,2.556259155E0,1.212860107E0,3.214492002E0
8.542480470E-1,-1.556488037E0,2.481689453E0,1.203277588E0,3.166909299E0
8.567199710E-1,-1.580993652E0,2.428436279E0,1.197952271E0,3.135591385E0
8.591918950E-1,-1.602294922E0,2.369842529E0,1.189422607E0,3.098100833E0
8.616943360E-1,-1.624664307E0,2.284622192E0,1.178771973E0,3.041140581E0
8.641662600E-1,-1.641708374E0,2.199401855E0,1.163864136E0,2.981133112E0
8.666381840E-1,-1.655563354E0,2.128021240E0,1.151077271E0,2.931611042E0
8.691406250E-1,-1.669403076E0,2.054519653E0,1.135101318E0,2.880349395E0
8.716125490E-1,-1.686447144E0,1.984207153E0,1.118057251E0,2.833943191E0
8.741149910E-1,-1.698165894E0,1.921356201E0,1.097808838E0,2.789365752E0
8.765869150E-1,-1.712020874E0,1.879821777E0,1.074386597E0,2.760263021E0
8.790588380E-1,-1.732254028E0,1.856384277E0,1.053070068E0,2.748785763E0
8.815612800E-1,-1.755691528E0,1.842529297E0,1.034957886E0,2.747454236E0
8.840332040E-1,-1.772735596E0,1.845733643E0,1.010467529E0,2.751430319E0
8.865051270E-1,-1.797241211E0,1.868103027E0,9.923553467E-1,2.775725856E0
8.890075690E-1,-1.817474365E0,1.904312134E0,9.742431641E-1,2.806914233E0
8.914794930E-1,-1.834518433E0,1.952255249E0,9.508056641E-1,2.842673011E0
8.939819340E-1,-1.850509644E0,2.008712769E0,9.241790771E-1,2.883300174E0
8.964538580E-1,-1.870742798E0,2.077957153E0,8.964843750E-1,2.936199718E0
8.989257820E-1,-1.893112183E0,2.152526855E0,8.655853271E-1,2.994408716E0
9.014282230E-1,-1.926132202E0,2.233489990E0,8.347015381E-1,3.065157329E0
9.039001470E-1,-1.966613770E0,2.318710327E0,8.016662598E-1,3.144305343E0
9.063720710E-1,-2.014556885E0,2.408187866E0,7.665252686E-1,3.231929645E0
9.088745120E-1,-2.069946289E0,2.493408203E0,7.313690186E-1,3.322147310E0
9.113464360E-1,-2.129608154E0,2.579696655E0,6.951446533E-1,3.416619940E0
9.138488770E-1,-2.190322876E0,2.660659790E0,6.578674316E-1,3.508477501E0
9.163208010E-1,-2.254241943E0,2.739486694E0,6.248321533E-1,3.602333870E0
9.187927250E-1,-2.323486328E0,2.809799194E0,5.960693359E-1,3.694436206E0
9.212951660E-1,-2.386337280E0,2.861984253E0,5.705108643E-1,3.769753589E0
9.237670900E-1,-2.445983887E0,2.896087646E0,5.545349121E-1,3.831144711E0
9.262390140E-1,-2.507766724E0,2.889694214E0,5.502624512E-1,3.865490312E0
9.287414560E-1,-2.572753906E0,2.880096436E0,5.247039795E-1,3.897349408E0
9.312133790E-1,-2.635604858E0,2.909927368E0,4.970092773E-1,3.957411841E0
9.337158210E-1,-2.698455811E0,2.955734253E0,4.735717773E-1,4.030173565E0
9.361877450E-1,-2.762374878E0,2.998352051E0,4.501342773E-1,4.101640020E0
9.386596680E-1,-2.825225830E0,3.033493042E0,4.309539795E-1,4.167697489E0
9.411621100E-1,-2.885940552E0,3.060134888E0,4.203033447E-1,4.227260733E0
9.436340340E-1,-2.955184937E0,3.061203003E0,4.192352295E-1,4.275492955E0
9.461059570E-1,-3.021224976E0,3.059066772E0,4.160461426E-1,4.319581492E0
9.486083990E-1,-3.084075928E0,3.069717407E0,4.107208252E-1,4.370741457E0
9.510803230E-1,-3.147994995E0,3.088897705E0,4.011383057E-1,4.428552073E0
9.535827640E-1,-3.210845947E0,3.104873657E0,3.936767578E-1,4.483832458E0
9.560546880E-1,-3.275833130E0,3.119781494E0,3.883514404E-1,4.540367398E0
9.585266120E-1,-3.341873169E0,3.142150879E0,3.787689209E-1,4.602683382E0
9.610290530E-1,-3.405792236E0,3.166656494E0,3.766326904E-1,4.665724627E0
9.635009770E-1,-3.471832275E0,3.168792725E0,3.990020752E-1,4.717421895E0
9.659729010E-1,-3.541076660E0,3.132568359E0,4.224395752E-1,4.746647621E0
9.684753420E-1,-3.604995728E0,3.108062744E0,4.320220947E-1,4.779402819E0
9.709472660E-1,-3.655059814E0,3.105941772E0,4.554595947E-1,4.818068076E0
9.734191900E-1,-3.690216064E0,3.114456177E0,4.852905273E-1,4.853147306E0
9.759216310E-1,-3.725372314E0,3.129379272E0,5.001983643E-1,4.890972492E0
9.783935550E-1,-3.758392334E0,3.147476196E0,5.172424316E-1,4.929468437E0
9.808959970E-1,-3.790344238E0,3.170913696E0,5.332183838E-1,4.970485385E0
9.833679200E-1,-3.824432373E0,3.195419312E0,5.492095947E-1,5.013842711E0
9.858398440E-1,-3.864913940E0,3.214599609E0,5.641174316E-1,5.058600488E0
9.883422860E-1,-3.902206421E0,3.208206177E0,5.790252686E-1,5.084788303E0
9.908142090E-1,-3.945877075E0,3.173049927E0,5.939483643E-1,5.098133618E0
9.932861330E-1,-3.985290527E0,3.124053955E0,6.003417969E-1,5.099280731E0
9.957885750E-1,-4.017257690E0,3.076110840E0,6.024627686E-1,5.095466479E0
9.982604990E-1,-4.048141479E0,3.043090820E0,6.024627686E-1,5.100079663E0
1.000762940E0,-4.083297729E0,3.002609253E0,5.992736816E-1,5.103735066E0
1.003234864E0,-4.116317749E0,2.933364868E0,5.928802490E-1,5.089224720E0
1.005706788E0,-4.152542114E0,2.844940186E0,5.822296143E-1,5.067176925E0
1.008209229E0,-4.185562134E0,2.759719849E0,5.662536621E-1,5.045356997E0
1.010681153E0,-4.207931519E0,2.684097290E0,5.492095947E-1,5.021224662E0
1.013153077E0,-4.229232788E0,2.603134155E0,5.332183838E-1,4.994701117E0
1.015655518E0,-4.248413086E0,2.513656616E0,5.151214600E-1,4.963147535E0
1.018127442E0,-4.267593384E0,2.406051636E0,4.906158447E-1,4.923630944E0
1.020629883E0,-4.283569336E0,2.305923462E0,4.639892578E-1,4.886873776E0
1.023101807E0,-4.298477173E0,2.215377808E0,4.341583252E-1,4.855234113E0
1.025573731E0,-4.313400269E0,2.138671875E0,4.000701904E-1,4.831086361E0
1.028076172E0,-4.324050903E0,2.071563721E0,3.617248535E-1,4.808288400E0
1.030548096E0,-4.341094971E0,2.022567749E0,3.286895752E-1,4.800408595E0
1.033020020E0,-4.359207153E0,1.989547729E0,2.956695557E-1,4.800875718E0
1.035522461E0,-4.381576538E0,1.973556519E0,2.658386230E-1,4.812879436E0
1.037994385E0,-4.403945923E0,1.974624634E0,2.498626709E-1,4.832837002E0
1.040496827E0,-4.415664673E0,1.978881836E0,2.487945557E-1,4.845200363E0
1.042968750E0,-4.438034058E0,1.972488403E0,2.498626709E-1,4.863053377E0
1.045440674E0,-4.462539673E0,1.992736816E0,2.349548340E-1,4.892899358E0
1.047943116E0,-4.478515625E0,2.043869019E0,2.253570557E-1,4.928010610E0
1.050415040E0,-4.488098145E0,2.121627808E0,2.147064209E-1,4.968946403E0
1.052886963E0,-4.503005981E0,2.213241577E0,1.902160645E-1,5.021123709E0
1.055389405E0,-4.531768799E0,2.338943481E0,1.603851318E-1,5.102284630E0
1.057861329E0,-4.558410645E0,2.474243164E0,1.369476318E-1,5.188423797E0
1.060363770E0,-4.586105347E0,2.619110107E0,1.071166992E-1,5.282383363E0
1.062835694E0,-4.624450684E0,2.762924194E0,6.877136230E-2,5.387394893E0
1.065307618E0,-4.671325684E0,2.906738281E0,2.615356445E-2,5.501917401E0
1.067810059E0,-4.714996338E0,3.053741455E0,-1.644897461E-2,5.617543761E0
1.070281983E0,-4.752288818E0,3.187957764E0,-6.332397461E-2,5.722878091E0
1.072753907E0,-4.783172607E0,3.299819946E0,-1.112670898E-1,5.812050605E0
1.075256348E0,-4.811935425E0,3.388229370E0,-1.560058594E-1,5.887202954E0
1.077728272E0,-4.836441040E0,3.448959351E0,-1.964874268E-1,5.943491385E0
1.080230713E0,-4.859878540E0,3.480911255E0,-2.412261963E-1,5.982754605E0
1.082702637E0,-4.882247925E0,3.500091553E0,-2.966156006E-1,6.014562868E0
1.085174561E0,-4.907806396E0,3.514999390E0,-3.552093506E-1,6.047144617E0
1.087677002E0,-4.932312012E0,3.527786255E0,-4.212493896E-1,6.078686428E0
1.090148926E0,-4.956817627E0,3.536300659E0,-4.990081787E-1,6.109375787E0
1.092620850E0,-4.984512329E0,3.530975342E0,-5.778503418E-1,6.135720091E0
1.095123291E0,-5.017532349E0,3.514999390E0,-6.620025635E-1,6.161907089E0
1.097595215E0,-5.050552368E0,3.488372803E0,-7.514801025E-1,6.183974966E0
1.100097657E0,-5.080383301E0,3.453216553E0,-8.462982178E-1,6.200904750E0
1.102569581E0,-5.111282349E0,3.414871216E0,-9.442901611E-1,6.219182951E0
1.105041504E0,-5.140045166E0,3.369064331E0,-1.043365479E0,6.233720422E0
1.107543946E0,-5.171997070E0,3.314727783E0,-1.141372681E0,6.248176179E0
1.110015870E0,-5.202896118E0,3.252944946E0,-1.230850220E0,6.258336129E0
1.112487793E0,-5.230590820E0,3.178375244E0,-1.319274902E0,6.261120969E0
1.114990235E0,-5.263610840E0,3.092086792E0,-1.391708374E0,6.261266006E0
1.117462159E0,-5.300903320E0,2.965316772E0,-1.443908691E0,6.243200452E0
1.119934082E0,-5.346694946E0,2.812988281E0,-1.515274048E0,6.228651970E0
1.122436524E0,-5.392501831E0,2.664916992E0,-1.589843750E0,6.221612470E0
1.124908448E0,-5.436187744E0,2.518981934E0,-1.652694702E0,6.215207716E0
1.127410889E0,-5.478790283E0,2.377304077E0,-1.697433472E0,6.208864472E0
1.129882813E0,-5.521408081E0,2.223892212E0,-1.727264404E0,6.197990488E0
1.132354737E0,-5.557632446E0,2.046005249E0,-1.738983154E0,6.172315473E0
1.134857178E0,-5.580001831E0,1.849990845E0,-1.736846924E0,6.129887748E0
1.137329102E0,-5.576797485E0,1.647583008E0,-1.737915039E0,6.069229658E0
1.139801026E0,-5.575729370E0,1.455841064E0,-1.703826904E0,6.009264292E0
1.142303467E0,-5.619415283E0,1.272613525E0,-1.622863770E0,5.985905122E0
1.144775391E0,-5.642852783E0,1.069152832E0,-1.515274048E0,5.939775312E0
1.147277832E0,-5.633255005E0,8.305358887E-1,-1.392776489E0,5.862011443E0
1.149749756E0,-5.642852783E0,5.684814453E-1,-1.275588989E0,5.813096073E0
1.152221680E0,-5.649230957E0,3.202667236E-1,-1.149887085E0,5.773960641E0
1.154724122E0,-5.633255005E0,8.271789551E-2,-9.954223633E-1,5.721124879E0
1.157196045E0,-5.615142822E0,-1.495056152E-1,-8.228607178E-1,5.677083812E0
1.159667969E0,-5.577865601E0,-3.710784912E-1,-6.460266113E-1,5.627400313E0
1.162170411E0,-5.526733398E0,-5.809478760E-1,-4.627990723E-1,5.576420489E0
1.164642334E0,-5.469207764E0,-7.812194824E-1,-2.699890137E-1,5.531313724E0
1.167144776E0,-5.389312744E0,-9.931945801E-1,-6.439208984E-2,5.480444660E0
1.169616700E0,-5.301956177E0,-1.225433350E0,1.262969971E-1,5.443195489E0
1.172088624E0,-5.215667725E0,-1.467239380E0,3.031311035E-1,5.426589138E0
1.174591065E0,-5.123001099E0,-1.668579102E0,4.682464600E-1,5.408192972E0
1.177062989E0,-5.023925781E0,-1.798538208E0,6.205749512E-1,5.372120923E0
1.179534913E0,-4.912078857E0,-1.863525391E0,7.601318359E-1,5.308393918E0
1.182037354E0,-4.786376953E0,-1.886962891E0,8.858337402E-1,5.220606737E0
1.184509278E0,-4.657470703E0,-1.868850708E0,1.004074097E0,5.117890299E0
1.187011719E0,-4.524322510E0,-1.803863525E0,1.101013184E0,4.993560636E0
1.189483643E0,-4.386901855E0,-1.673904419E0,1.191558838E0,4.844241567E0
1.191955567E0,-4.245223999E0,-1.475769043E0,1.261871338E0,4.668205259E0
1.194458008E0,-4.107803345E0,-1.230758667E0,1.316192627E0,4.485663635E0
1.196929932E0,-3.984222412E0,-9.473876953E-1,1.354537964E0,4.313507247E0
1.199401856E0,-3.876632690E0,-6.374053955E-1,1.380111694E0,4.164045502E0
1.201904297E0,-3.773300171E0,-3.061065674E-1,1.392898560E0,4.033814796E0
1.204376221E0,-3.674240112E0,6.353759766E-2,1.390762329E0,3.929159870E0
1.206878663E0,-3.586883545E0,4.449005127E-1,1.373718262E0,3.866622802E0
1.209350586E0,-3.501663208E0,8.252105713E-1,1.348159790E0,3.841894393E0
1.211822510E0,-3.427093506E0,1.194854736E0,1.315124512E0,3.860336801E0
1.214324952E0,-3.359985352E0,1.536804199E0,1.275711060E0,3.908798718E0
1.216796875E0,-3.299270630E0,1.839340210E0,1.224578857E0,3.970888122E0
1.219268799E0,-3.238540649E0,2.095001221E0,1.173446655E0,4.031643921E0
1.221740723E0,-3.187408447E0,2.303787231E0,1.118057251E0,4.088650173E0
1.224243165E0,-3.141601562E0,2.447601318E0,1.056274414E0,4.120209731E0
1.226745606E0,-3.098999023E0,2.531753540E0,9.944915771E-1,4.123419022E0
1.229217530E0,-3.064910889E0,2.562652588E0,9.284362793E-1,4.101568111E0
1.231689454E0,-3.039337158E0,2.533889771E0,8.623962402E-1,4.049925309E0
1.234191895E0,-3.020172119E0,2.452926636E0,7.899475098E-1,3.970177046E0
1.236663819E0,-3.003128052E0,2.320831299E0,7.185821533E-1,3.862822326E0
1.239135743E0,-2.994598389E0,2.143997192E0,6.472015381E-1,3.739413497E0
1.241638184E0,-2.983947754E0,1.921356201E0,5.790252686E-1,3.595945510E0
1.244110108E0,-2.975418091E0,1.657180786E0,5.087280273E-1,3.443568669E0
1.246582032E0,-2.969024658E0,1.361038208E0,4.405517578E-1,3.295696933E0
1.249084473E0,-2.963699341E0,1.044647217E0,3.744964600E-1,3.164656251E0
1.251556397E0,-2.959442139E0,7.165527344E-1,3.191070557E-1,3.061629453E0
1.254058838E0,-2.955184937E0,3.831176758E-1,2.647857666E-1,2.991656508E0
1.256530762E0,-2.953048706E0,6.886291504E-2,2.189788818E-1,2.961957210E0
1.259002686E0,-2.957321167E0,-2.208862305E-1,1.774291992E-1,2.970861884E0
1.261474610E0,-2.976486206E0,-4.840087891E-1,1.422729492E-1,3.018936275E0
1.263977051E0,-3.003128052E0,-7.204895020E-1,1.145782471E-1,3.090471063E0
1.266448975E0,-3.037216187E0,-9.410095215E-1,9.860229492E-2,3.181179576E0
1.268951416E0,-3.084075928E0,-1.141265869E0,1.007232666E-1,3.290008706E0
1.271423340E0,-3.125625610E0,-1.333023071E0,1.039276123E-1,3.399600993E0
1.273925782E0,-3.157577515E0,-1.523696899E0,1.284179688E-1,3.508338521E0
1.276397706E0,-3.183151245E0,-1.710128784E0,1.688995361E-1,3.617391237E0
1.278869629E0,-3.200195312E0,-1.889083862E0,2.136535645E-1,3.722302476E0
1.281341553E0,-3.203384399E0,-2.070175171E0,2.701110840E-1,3.823644446E0
1.283843995E0,-3.201263428E0,-2.245956421E0,3.318939209E-1,3.924609707E0
1.286315918E0,-3.184219360E0,-2.404678345E0,4.000701904E-1,4.010210348E0
1.288818360E0,-3.154388428E0,-2.538894653E0,4.778289795E-1,4.077311976E0
1.291290284E0,-3.111770630E0,-2.637969971E0,5.566558838E-1,4.117264601E0
1.293792725E0,-3.058517456E0,-2.693359375E0,6.312255859E-1,4.123973750E0
1.296264649E0,-2.996734619E0,-2.692291260E0,7.015380859E-1,4.089132706E0
1.298736573E0,-2.939208984E0,-2.630508423E0,7.622528076E-1,4.017406298E0
1.301208497E0,-2.880615234E0,-2.502685547E0,8.187103271E-1,3.902776662E0
1.303710938E0,-2.827346802E0,-2.319458008E0,8.634643555E-1,3.757571833E0
1.306182862E0,-2.778350830E0,-2.090423584E0,8.996734619E-1,3.591450464E0
1.308685303E0,-2.729354858E0,-1.819839478E0,9.295043945E-1,3.409570660E0
1.311157227E0,-2.684600830E0,-1.516250610E0,9.529418945E-1,3.227103312E0
1.313659668E0,-2.639862061E0,-1.189208984E0,9.710540771E-1,3.053855879E0
1.316131592E0,-2.595123291E0,-8.568420410E-1,9.785003662E-1,2.902810043E0
1.318603516E0,-2.554641724E0,-5.266113281E-1,9.817047119E-1,2.786980080E0
1.321075440E0,-2.515228271E0,-1.974487305E-1,9.795684814E-1,2.706457771E0
1.323577881E0,-2.477951050E0,1.146697998E-1,9.742431641E-1,2.665059157E0
1.326049805E0,-2.444915771E0,4.108123779E-1,9.646606445E-1,2.660253766E0
1.328552247E0,-2.411895752E0,6.728668213E-1,9.529418945E-1,2.679195613E0
1.331024170E0,-2.381011963E0,9.061737061E-1,9.433593750E-1,2.716669958E0
1.333526612E0,-2.355438232E0,1.096847534E0,9.326934814E-1,2.760630528E0
1.335998536E0,-2.332000732E0,1.258773804E0,9.177856445E-1,2.804473105E0
1.338470459E0,-2.309631348E0,1.386596680E0,9.039306641E-1,2.841502764E0
1.340942383E0,-2.289398193E0,1.476089478E0,8.868865967E-1,2.864742932E0
1.343444825E0,-2.273406982E0,1.530410767E0,8.634643555E-1,2.873344239E0
1.345916749E0,-2.259567261E0,1.553848267E0,8.389587402E-1,2.867741343E0
1.348419190E0,-2.245712280E0,1.543197632E0,8.101959229E-1,2.842727565E0
1.350891114E0,-2.238265991E0,1.509109497E0,7.792968750E-1,2.809724140E0
1.353393555E0,-2.229736328E0,1.451583862E0,7.462768555E-1,2.763285897E0
1.355865479E0,-2.223342896E0,1.368484497E0,7.100524902E-1,2.705582745E0
1.358337403E0,-2.215896606E0,1.269424438E0,6.727752686E-1,2.640882947E0
1.360809327E0,-2.209503174E0,1.158630371E0,6.344299316E-1,2.574262992E0
1.363311768E0,-2.209503174E0,1.046783447E0,5.939483643E-1,2.516035477E0
1.365783692E0,-2.210571289E0,9.317321777E-1,5.577239990E-1,2.462885774E0
1.368286133E0,-2.208435059E0,8.188171387E-1,5.140533447E-1,2.410787787E0
1.370758057E0,-2.208435059E0,7.080230713E-1,4.725036621E-1,2.366799905E0
1.373229981E0,-2.208435059E0,6.057586670E-1,4.266967773E-1,2.329420338E0
1.375732422E0,-2.210571289E0,5.013732910E-1,3.840942383E-1,2.299027835E0
1.378204346E0,-2.214828491E0,4.076232910E-1,3.414764404E-1,2.277768239E0
1.380676270E0,-2.214828491E0,3.277282715E-1,2.999267578E-1,2.258943808E0
1.383178711E0,-2.216949463E0,2.627410889E-1,2.605133057E-1,2.247613175E0
1.385650635E0,-2.216949463E0,2.126770020E-1,2.221679688E-1,2.238181189E0
1.388153077E0,-2.221221924E0,1.807250977E-1,1.838226318E-1,2.236130398E0
1.390625000E0,-2.229736328E0,1.636810303E-1,1.433410645E-1,2.240326368E0
1.393096924E0,-2.238265991E0,1.583557129E-1,1.028594971E-1,2.246217099E0
1.395599366E0,-2.249984741E0,1.679382324E-1,6.344604492E-2,2.257135350E0
1.398071290E0,-2.264892578E0,1.807250977E-1,2.189636230E-2,2.272197043E0
1.400543213E0,-2.278747559E0,1.998901367E-1,-1.965332031E-2,2.287582295E0
1.403045655E0,-2.293655396E0,2.126770020E-1,-5.267333984E-2,2.304096582E0
1.405517579E0,-2.308563232E0,2.158813477E-1,-8.782958984E-2,2.320298039E0
1.408020020E0,-2.317092896E0,2.190704346E-1,-1.144561768E-1,2.330238520E0
1.410491944E0,-2.322418213E0,2.180023193E-1,-1.378936768E-1,2.336699817E0
1.412963868E0,-2.323486328E0,2.084197998E-1,-1.570587158E-1,2.338096442E0
1.415466309E0,-2.324554443E0,1.977691650E-1,-1.719818115E-1,2.339282742E0
1.417938233E0,-2.323486328E0,1.881713867E-1,-1.837005615E-1,2.338320569E0
1.420410157E0,-2.319213867E0,1.807250977E-1,-2.007446289E-1,2.334890346E0
1.422912598E0,-2.323486328E0,1.785888672E-1,-2.156524658E-1,2.340296709E0
1.425384522E0,-2.325607300E0,1.839141846E-1,-2.348327637E-1,2.344657793E0
1.427886963E0,-2.329879761E0,1.913757324E-1,-2.539978027E-1,2.351484479E0
1.430358887E0,-2.334136963E0,2.009582520E-1,-2.731781006E-1,2.358644919E0
1.432830811E0,-2.341598511E0,2.126770020E-1,-2.987518311E-1,2.370140871E0
1.435333252E0,-2.344787598E0,2.158813477E-1,-3.243103027E-1,2.376933067E0
1.437805176E0,-2.354370117E0,2.169342041E-1,-3.477478027E-1,2.389779829E0
1.440277100E0,-2.366088867E0,2.169342041E-1,-3.669281006E-1,2.404178281E0
1.442779541E0,-2.374618530E0,2.105560303E-1,-3.860931396E-1,2.414997913E0
1.445251465E0,-2.377807617E0,2.073516846E-1,-3.978118896E-1,2.419755790E0
1.447753907E0,-2.378875732E0,2.030944824E-1,-4.127349854E-1,2.422941866E0
1.450225831E0,-2.384201050E0,1.892395020E-1,-4.255065918E-1,2.429255461E0
1.452728272E0,-2.393783569E0,1.732635498E-1,-4.361724854E-1,2.439357799E0
1.455200196E0,-2.403381348E0,1.551513672E-1,-4.478759766E-1,2.449674823E0
1.457672120E0,-2.411895752E0,1.349182129E-1,-4.585418701E-1,2.458801474E0
1.460144043E0,-2.422546387E0,1.146697998E-1,-4.681243896E-1,2.470024413E0
1.462646485E0,-2.432144165E0,9.443664551E-2,-4.713134766E-1,2.479189366E0
1.465118409E0,-2.439590454E0,6.886291504E-2,-4.713134766E-1,2.485654859E0
1.467620850E0,-2.447052002E0,3.797912598E-2,-4.702606201E-1,2.492117767E0
1.470092774E0,-2.454513550E0,1.240539551E-2,-4.691925049E-1,2.498986248E0
1.472564698E0,-2.455581665E0,-2.168273926E-2,-4.681243896E-1,2.499898378E0
1.475067139E0,-2.448120117E0,-6.002807617E-2,-4.638671875E-1,2.492402104E0
1.477539063E0,-2.442794800E0,-9.730529785E-2,-4.585418701E-1,2.487363142E0
1.480010987E0,-2.435333252E0,-1.335296631E-1,-4.542694092E-1,2.480935089E0
1.482513428E0,-2.423614502E0,-1.558990479E-1,-4.500122070E-1,2.469964120E0
1.484985352E0,-2.415100098E0,-1.750793457E-1,-4.478759766E-1,2.462509726E0
1.487487793E0,-2.404449463E0,-1.878662109E-1,-4.436187744E-1,2.452237458E0
1.489959717E0,-2.396987915E0,-1.931915283E-1,-4.382934570E-1,2.444376237E0
1.492431641E0,-2.387405396E0,-1.974487305E-1,-4.351043701E-1,2.434749748E0
1.494934082E0,-2.375686646E0,-1.985168457E-1,-4.340362549E-1,2.423155679E0
1.497406006E0,-2.359695435E0,-1.995849609E-1,-4.287109375E-1,2.406613756E0
1.499877930E0,-2.345855713E0,-1.985168457E-1,-4.297790527E-1,2.393148135E0
1.502380372E0,-2.334136963E0,-2.017059326E-1,-4.255065918E-1,2.381162847E0
1.504852295E0,-2.319213867E0,-2.155609131E-1,-4.201812744E-1,2.366806239E0
1.507354737E0,-2.296844482E0,-2.357940674E-1,-4.074096680E-1,2.344584410E0
1.509826661E0,-2.271286011E0,-2.666931152E-1,-3.935546875E-1,2.320506551E0
1.512298584E0,-2.235061646E0,-3.071746826E-1,-3.765106201E-1,2.287272850E0
1.514801026E0,-2.195648193E0,-3.529815674E-1,-3.520050049E-1,2.251527148E0
1.517272950E0,-2.148773193E0,-3.955841064E-1,-3.264465332E-1,2.209135659E0
1.519744874E0,-2.099777222E0,-4.360656738E-1,-2.966156006E-1,2.164993872E0
1.522247315E0,-2.052902222E0,-4.712219238E-1,-2.625274658E-1,2.122587643E0
1.524719239E0,-2.006027222E0,-4.989166260E-1,-2.316284180E-1,2.080075657E0
1.527191163E0,-1.957031250E0,-5.180969238E-1,-1.986083984E-1,2.034168388E0
1.529693604E0,-1.911224365E0,-5.244903564E-1,-1.634521484E-1,1.988613918E0
1.532165528E0,-1.863281250E0,-5.191650391E-1,-1.325683594E-1,1.938794400E0
1.534667969E0,-1.812149048E0,-5.042419434E-1,-1.016693115E-1,1.883741160E0
1.537139893E0,-1.765289307E0,-4.754791260E-1,-7.183837891E-2,1.829614027E0
1.539611817E0,-1.715209961E0,-4.382019043E-1,-4.414367676E-2,1.770851429E0
1.542114258E0,-1.665145874E0,-3.934631348E-1,-1.538085938E-2,1.711070013E0
1.544586182E0,-1.616149902E0,-3.359375000E-1,1.231384277E-2,1.650741089E0
1.547088624E0,-1.567138672E0,-2.709503174E-1,4.214477539E-2,1.590947477E0
1.549560547E0,-1.521331787E0,-1.921234131E-1,6.344604492E-2,1.534727081E0
1.552032471E0,-1.477661133E0,-1.090240479E-1,8.688354492E-2,1.484222833E0
1.554534913E0,-1.440383911E0,-2.380371094E-2,1.039276123E-1,1.444324540E0
1.557006836E0,-1.404159546E0,6.034851074E-2,1.252288818E-1,1.411023829E0
1.559478760E0,-1.366867065E0,1.487579346E-1,1.433410645E-1,1.382389655E0
1.561981202E0,-1.334915161E0,2.371826172E-1,1.561279297E-1,1.364782038E0
1.564453125E0,-1.296569824E0,3.266601562E-1,1.763610840E-1,1.348667268E0
1.566955567E0,-1.262481689E0,4.108123779E-1,1.870117188E-1,1.340746139E0
1.569427491E0,-1.232650757E0,4.875183105E-1,1.934051514E-1,1.339592305E0
1.571899415E0,-1.204956055E0,5.631561279E-1,2.008666992E-1,1.345143616E0
1.574401856E0,-1.176193237E0,6.249389648E-1,2.083129883E-1,1.348099975E0
1.576873780E0,-1.147430420E0,6.750030518E-1,2.115173340E-1,1.347948542E0
1.579345704E0,-1.119735718E0,7.176208496E-1,2.147064209E-1,1.347177274E0
1.581848145E0,-1.092041016E0,7.367858887E-1,2.210998535E-1,1.335773997E0
1.584320069E0,-1.063278198E0,7.399902344E-1,2.253570557E-1,1.314888541E0
1.586822510E0,-1.032379150E0,7.357177734E-1,2.285614014E-1,1.288148930E0
1.589294434E0,-1.001495361E0,7.176208496E-1,2.392120361E-1,1.255067744E0
1.591766358E0,-9.674072266E-1,6.931152344E-1,2.466735840E-1,1.215373740E0
1.594268799E0,-9.269256592E-1,6.675415039E-1,2.562561035E-1,1.170670760E0
1.596740723E0,-8.907012939E-1,6.409149170E-1,2.637176514E-1,1.128568884E0
1.599212647E0,-8.598022461E-1,6.206817627E-1,2.733001709E-1,1.095079329E0
1.601715088E0,-8.289184570E-1,6.015014648E-1,2.828826904E-1,1.062512323E0
1.604187012E0,-7.990875244E-1,5.855255127E-1,2.882080078E-1,1.031719368E0
1.606658936E0,-7.703247070E-1,5.716705322E-1,2.903442383E-1,1.002251031E0
1.609161377E0,-7.436981201E-1,5.578308105E-1,2.903442383E-1,9.739414170E-1
1.611633301E0,-7.181243896E-1,5.429077148E-1,2.850189209E-1,9.442919099E-1
1.614135743E0,-6.946868896E-1,5.279998779E-1,2.786254883E-1,9.159726570E-1
1.616607666E0,-6.648712158E-1,5.120239258E-1,2.743682861E-1,8.828930800E-1
1.619079590E0,-6.392974854E-1,4.917755127E-1,2.690429688E-1,8.502520501E-1
1.621582032E0,-6.116027832E-1,4.672698975E-1,2.594451904E-1,8.122259097E-1
1.624053956E0,-5.860290527E-1,4.534301758E-1,2.498626709E-1,7.819592888E-1
1.626525879E0,-5.540771484E-1,4.374542236E-1,2.402801514E-1,7.457226263E-1
1.629028321E0,-5.242462158E-1,4.150848389E-1,2.360229492E-1,7.091095478E-1
1.631500245E0,-4.986877441E-1,3.990936279E-1,2.285614014E-1,6.783844811E-1
1.634002686E0,-4.741821289E-1,3.788604736E-1,2.179107666E-1,6.448790988E-1
1.636474610E0,-4.443511963E-1,3.703308105E-1,2.061920166E-1,6.140912331E-1
1.638946534E0,-4.230499268E-1,3.756713867E-1,1.944732666E-1,5.982642249E-1
1.641448975E0,-3.953552246E-1,3.852539062E-1,1.827545166E-1,5.814856312E-1
1.643920899E0,-3.697814941E-1,4.012298584E-1,1.710357666E-1,5.718190152E-1
1.646392823E0,-3.420867920E-1,4.257354736E-1,1.582489014E-1,5.686095159E-1
1.648895264E0,-3.154602051E-1,4.512939453E-1,1.508026123E-1,5.708964827E-1
1.651367188E0,-2.866973877E-1,4.875183105E-1,1.390838623E-1,5.824206521E-1
1.653869629E0,-2.590026855E-1,5.279998779E-1,1.230926514E-1,6.008477869E-1
1.656341553E0,-2.281036377E-1,5.652770996E-1,1.071166992E-1,6.189050461E-1
1.658813477E0,-2.004089355E-1,5.983123779E-1,9.220886230E-2,6.376863785E-1
1.661315918E0,-1.705780029E-1,6.281280518E-1,7.090759277E-2,6.547286394E-1
1.663787842E0,-1.407623291E-1,6.558227539E-1,5.172729492E-2,6.727504967E-1
1.666259766E0,-1.098632812E-1,6.696777344E-1,3.361511230E-2,6.794616871E-1
1.668762207E0,-8.428955078E-2,6.707458496E-1,1.870727539E-2,6.762800347E-1
1.671234131E0,-5.233764648E-2,6.675415039E-1,4.852294922E-3,6.696076713E-1
1.673736573E0,-2.143859863E-2,6.611480713E-1,-1.541137695E-3,6.614973626E-1
1.676208497E0,1.051330566E-2,6.504974365E-1,-8.987426758E-3,6.506444639E-1
1.678680420E0,4.460144043E-2,6.334533691E-1,-1.858520508E-2,6.352935300E-1
1.681182862E0,8.082580566E-2,6.057586670E-1,-1.644897461E-2,6.113484622E-1
1.683654786E0,1.181030273E-1,5.748748779E-1,-1.432800293E-2,5.870559956E-1
1.686126709E0,1.617736816E-1,5.354614258E-1,-1.538085938E-2,5.595768342E-1
1.688629151E0,2.097167969E-1,4.971008301E-1,-1.538085938E-2,5.397471084E-1
1.691101075E0,2.565917969E-1,4.608917236E-1,-8.987426758E-3,5.275806147E-1
1.693572999E0,3.098449707E-1,4.257354736E-1,-7.934570312E-3,5.266094917E-1
1.696075440E0,3.620452881E-1,3.990936279E-1,-7.934570312E-3,5.389020986E-1
1.698547364E0,4.163818359E-1,3.788604736E-1,-1.005554199E-2,5.630365936E-1
1.701049805E0,4.632568359E-1,3.692779541E-1,-1.538085938E-2,5.926294578E-1
1.703521729E0,5.111846924E-1,3.607482910E-1,-2.177429199E-2,6.260377297E-1
1.705993653E0,5.623168945E-1,3.618164062E-1,-2.923583984E-2,6.693027238E-1
1.708496094E0,6.166534424E-1,3.713989258E-1,-3.988647461E-2,7.209643271E-1
1.710968018E0,6.667175293E-1,3.767242432E-1,-5.160522461E-2,7.675262331E-1
1.713439942E0,7.221069336E-1,3.852539062E-1,-6.439208984E-2,8.209782805E-1
1.715942383E0,7.807006836E-1,3.937683105E-1,-7.611083984E-2,8.776900932E-1
1.718414307E0,8.424835205E-1,4.150848389E-1,-8.888244629E-2,9.433843305E-1
1.720916749E0,9.031982422E-1,4.342498779E-1,-1.006011963E-1,1.007204360E0
1.723388672E0,9.649963379E-1,4.566192627E-1,-1.123199463E-1,1.073468609E0
1.725860596E0,1.032104492E0,4.747314453E-1,-1.187133789E-1,1.142235744E0
1.728363038E0,1.098144531E0,4.992370605E-1,-1.304321289E-1,1.213330785E0
1.730834961E0,1.162063599E0,5.258636475E-1,-1.410827637E-1,1.283288249E0
1.733306885E0,1.228103638E0,5.482330322E-1,-1.453552246E-1,1.352747628E0
1.735809327E0,1.289901733E0,5.791320801E-1,-1.528015137E-1,1.422177468E0
1.738281250E0,1.350616455E0,6.036376953E-1,-1.560058594E-1,1.487575579E0
1.740783692E0,1.414535522E0,6.260070801E-1,-1.538696289E-1,1.554500393E0
1.743255616E0,1.477386475E0,6.419830322E-1,-1.496124268E-1,1.617775289E0
1.745727540E0,1.541290283E0,6.483764648E-1,-1.432189941E-1,1.678237009E0
1.748229981E0,1.611602783E0,6.494445801E-1,-1.336364746E-1,1.742670508E0
1.750701905E0,1.676589966E0,6.430511475E-1,-1.229705811E-1,1.799886234E0
1.753173829E0,1.740509033E0,6.345214844E-1,-1.080627441E-1,1.855711930E0
1.755676270E0,1.807617188E0,6.174774170E-1,-9.315490723E-2,1.912442442E0
1.758148194E0,1.869400024E0,5.951080322E-1,-7.290649414E-2,1.963192649E0
1.760650635E0,1.936508179E0,5.567626953E-1,-5.160522461E-2,2.015616959E0
1.763122559E0,2.003616333E0,5.077514648E-1,-2.603149414E-2,2.067115768E0
1.765594483E0,2.070739746E0,4.640808105E-1,2.731323242E-3,2.122107809E0
1.768096924E0,2.141036987E0,4.108123779E-1,3.254699707E-2,2.180336097E0
1.770568848E0,2.215606689E0,3.575592041E-1,6.663513184E-2,2.245262084E0
1.773040772E0,2.288055420E0,3.053588867E-1,9.753417969E-2,2.310401387E0
1.775543213E0,2.363677979E0,2.510223389E-1,1.294860840E-1,2.380494160E0
1.778015137E0,2.435058594E0,1.945648193E-1,1.593170166E-1,2.448008933E0
1.780517579E0,2.498977661E0,1.338500977E-1,1.934051514E-1,2.510022062E0
1.782989502E0,2.554367065E0,7.418823242E-2,2.370758057E-1,2.566417724E0
1.785461426E0,2.610824585E0,2.200317383E-2,2.903442383E-1,2.627011406E0
1.787963868E0,2.669418335E0,-2.380371094E-2,3.553314209E-1,2.693069119E0
1.790435791E0,2.732269287E0,-5.789184570E-2,4.320220947E-1,2.766819476E0
1.792907715E0,2.802566528E0,-8.346557617E-2,5.183105469E-1,2.851313990E0
1.795410157E0,2.884597778E0,-8.985900879E-2,6.088562012E-1,2.949522819E0
1.797882081E0,2.976211548E0,-7.493591309E-2,7.068634033E-1,3.059919352E0
1.800354004E0,3.076339722E0,-2.380371094E-2,8.027343750E-1,3.179436299E0
1.802856446E0,3.179672241E0,5.928039551E-2,9.049987793E-1,3.306486431E0
1.805328370E0,3.286193848E0,1.658020020E-1,1.004074097E0,3.440163528E0
1.807830811E0,3.393798828E0,2.904510498E-1,1.102081299E0,3.580058028E0
1.810302735E0,3.513107300E0,4.172058105E-1,1.196884155E0,3.734771113E0
1.812774659E0,3.638809204E0,5.418395996E-1,1.293823242E0,3.899807836E0
1.815277100E0,3.774093628E0,6.568908691E-1,1.389694214E0,4.075112064E0
1.817749024E0,3.918960571E0,7.602233887E-1,1.489837646E0,4.260963245E0
1.820220948E0,4.073425293E0,8.454437256E-1,1.586776733E0,4.452575559E0
1.822723389E0,4.239608765E0,9.136199951E-1,1.683715820E0,4.652298672E0
1.825195313E0,4.415374756E0,9.466400146E-1,1.788101196E0,4.856847480E0
1.827697754E0,4.595413208E0,9.519653320E-1,1.888244629E0,5.058609327E0
1.830169678E0,4.782897949E0,9.391937256E-1,1.992645264E0,5.265817391E0
1.832641602E0,4.977844238E0,9.157562256E-1,2.113006592E0,5.484736966E0
1.835144043E0,5.182373047E0,8.805999756E-1,2.236587524E0,5.712685049E0
1.837615967E0,5.393295288E0,8.390502930E-1,2.361221313E0,5.947016525E0
1.840118409E0,5.602081299E0,7.847290039E-1,2.493316650E0,6.181888256E0
1.842590332E0,5.813003540E0,7.250671387E-1,2.622207642E0,6.418154363E0
1.845062256E0,6.024993896E0,6.803283691E-1,2.755371094E0,6.659990091E0
1.847564698E0,6.235916138E0,6.441040039E-1,2.893844604E0,6.904770571E0
1.850036622E0,6.445770264E0,6.164093018E-1,3.035537720E0,7.151391750E0
1.852508545E0,6.655639648E0,6.121520996E-1,3.185729980E0,7.404130255E0
1.855010987E0,6.870819092E0,6.238708496E-1,3.345520020E0,7.667455512E0
1.857482911E0,7.094528198E0,6.537017822E-1,3.519165039E0,7.946331163E0
1.859954834E0,7.324615479E0,7.112274170E-1,3.694931030E0,8.234582665E0
1.862426758E0,7.561111450E0,7.953796387E-1,3.871765137E0,8.531916573E0
1.864929200E0,7.803985596E0,9.029693604E-1,4.046463013E0,8.836934296E0
1.867431641E0,8.039413452E0,1.033996582E0,4.227569580E0,9.141863166E0
1.869903565E0,8.268447876E0,1.191650391E0,4.407592773E0,9.445323445E0
1.872375489E0,8.487884521E0,1.361038208E0,4.583358765E0,9.741857432E0
1.874877930E0,8.709457397E0,1.539993286E0,4.765518188E0,1.004671046E1
1.877349854E0,8.933166504E0,1.717895508E0,4.948745728E0,1.035580576E1
1.879821778E0,9.157943726E0,1.883010864E0,5.141555786E0,1.067001683E1
1.882324219E0,9.386962891E0,2.020431519E0,5.338638306E0,1.098627666E1
1.884796143E0,9.613876343E0,2.109909058E0,5.537841797E0,1.129362769E1
1.887298584E0,9.830123901E0,2.142944336E0,5.734909058E0,1.158070500E1
1.889770508E0,1.003465271E1,2.109909058E0,5.927719116E0,1.184414730E1
1.892242432E0,1.022853088E1,2.019363403E0,6.117340088E0,1.208811492E1
1.894744874E0,1.041601562E1,1.888336182E0,6.302703857E0,1.232003535E1
1.897216797E0,1.059498596E1,1.726425171E0,6.472076416E0,1.253483325E1
1.899688721E0,1.077075195E1,1.546386719E0,6.630798340E0,1.274236619E1
1.902191163E0,1.094119263E1,1.346115112E0,6.790588379E0,1.294734770E1
1.904663086E0,1.111163330E1,1.123474121E0,6.943984985E0,1.315102719E1
1.907165528E0,1.126396179E1,8.869934082E-1,7.076080322E0,1.333171052E1
1.909637452E0,1.140563965E1,6.558227539E-1,7.191131592E0,1.349929972E1
1.912109375E0,1.153773499E1,4.257354736E-1,7.305114746E0,1.366255030E1
1.914611817E0,1.165278625E1,2.126770020E-1,7.410568237E0,1.381119765E1
1.917083741E0,1.175718689E1,2.412414551E-2,7.502182007E0,1.394685486E1
1.919555665E0,1.182748413E1,-1.207427979E-1,7.602325439E0,1.406055873E1
1.922058106E0,1.190100098E1,-2.326049805E-1,7.729080200E0,1.419248428E1
1.924530030E0,1.197450256E1,-3.103637695E-1,7.877151489E0,1.433647631E1
1.927001954E0,1.204374695E1,-3.519134521E-1,8.033752441E0,1.448160426E1
1.929504395E0,1.212043762E1,-3.561706543E-1,8.197799683E0,1.463679560E1
1.931976319E0,1.220140076E1,-3.018493652E-1,8.384231567E0,1.480745192E1
1.934478760E0,1.227383423E1,-1.942443848E-1,8.579162598E0,1.497620674E1
1.936950684E0,1.233775330E1,-3.126525879E-2,8.765594482E0,1.513462192E1
1.939422608E0,1.238569641E1,1.860504150E-1,8.972244263E0,1.529513836E1
1.941925049E0,1.241658020E1,4.481048584E-1,9.193832397E0,1.545635196E1
1.944396973E0,1.242936707E1,7.325286865E-1,9.421798706E0,1.561396986E1
1.946868897E0,1.243682861E1,1.016952515E0,9.650817871E0,1.577489093E1
1.949371338E0,1.242297363E1,1.263031006E0,9.888381958E0,1.592813922E1
1.951843262E0,1.237397766E1,1.463302612E0,1.011634827E1,1.604983115E1
1.954345704E0,1.229727173E1,1.623092651E0,1.034643555E1,1.615258649E1
1.956817627E0,1.220140076E1,1.761566162E0,1.056588745E1,1.623623335E1
1.959289551E0,1.209274292E1,1.912841797E0,1.077360535E1,1.630840174E1
1.961791993E0,1.196490479E1,2.069427490E0,1.097494507E1,1.636737291E1
1.964263916E0,1.181364441E1,2.197265625E0,1.116989136E1,1.640599413E1
1.966735840E0,1.163894653E1,2.273971558E0,1.134565735E1,1.641218949E1
1.969238282E0,1.143334961E1,2.299530029E0,1.150758362E1,1.638394954E1
1.971710206E0,1.121389771E1,2.271835327E0,1.164393616E1,1.632464354E1
1.974212647E0,1.099232483E1,2.191940308E0,1.174833679E1,1.623758679E1
1.976684571E0,1.076435852E1,2.071563721E0,1.182609558E1,1.612511480E1
1.979156495E0,1.053852844E1,1.894729614E0,1.188041687E1,1.599358894E1
1.981658936E0,1.032865906E1,1.668899536E0,1.190599060E1,1.584989072E1
1.984130860E0,1.011347961E1,1.402572632E0,1.190385437E1,1.568283867E1
1.986633301E0,9.887649536E0,1.079803467E0,1.187722778E1,1.549193754E1
1.989105225E0,9.656478882E0,7.165527344E-1,1.182928467E1,1.528702090E1
1.991577149E0,9.421066284E0,3.266601562E-1,1.177389526E1,1.508269891E1
1.994079590E0,9.182434082E0,-6.642150879E-2,1.170785522E1,1.487936092E1
1.996551514E0,8.954467773E0,-4.296722412E-1,1.162368774E1,1.467914262E1
1.999023438E0,8.736099243E0,-7.364654541E-1,1.152569580E1,1.448114205E1
2.001525879E0,8.515579224E0,-9.559173584E-1,1.140425110E1,1.426484527E1
2.003997803E0,8.290817261E0,-1.082687378E0,1.125404358E1,1.402010555E1
2.006469727E0,8.068176270E0,-1.112503052E0,1.107827759E1,1.374995875E1
2.008972168E0,7.855117798E0,-1.042205811E0,1.089398193E1,1.347100260E1
2.011444092E0,7.658050537E0,-9.101104736E-1,1.070863342E1,1.319654761E1
2.013946534E0,7.455642700E0,-7.311401367E-1,1.051261902E1,1.290876960E1
2.016418457E0,7.243652344E0,-5.404663086E-1,1.030490112E1,1.260767981E1
2.018890381E0,7.022079468E0,-3.593750000E-1,1.008758545E1,1.229626491E1
2.021392823E0,6.797317505E0,-1.931915283E-1,9.866012573E0,1.198244768E1
2.023864747E0,6.582122803E0,-5.044555664E-2,9.645492554E0,1.167743174E1
2.026336670E0,6.375473022E0,4.862976074E-2,9.427124023E0,1.138067171E1
2.028839112E0,6.171997070E0,1.050872803E-1,9.217254639E0,1.109334820E1
2.031311036E0,5.972793579E0,1.072235107E-1,9.006332397E0,1.080739484E1
2.033813477E0,5.770401001E0,5.076599121E-2,8.799682617E0,1.052304704E1
2.036285401E0,5.561599731E0,-4.830932617E-2,8.601531982E0,1.024305022E1
2.038757325E0,5.345352173E0,-1.995849609E-1,8.415115356E0,9.971298334E0
2.041259766E0,5.109939575E0,-4.062347412E-1,8.240417480E0,9.704689041E0
2.043731690E0,4.854263306E0,-6.853332520E-1,8.060379028E0,9.434154121E0
2.046203614E0,4.630569458E0,-9.676361084E-1,7.885681152E0,9.195784925E0
2.048706055E0,4.437744141E0,-1.145538330E0,7.708847046E0,8.968397510E0
2.051177979E0,4.248138428E0,-1.187072754E0,7.513900757E0,8.712894261E0
2.053680420E0,4.087280273E0,-1.189208984E0,7.306182861E0,8.455790090E0
2.056152344E0,3.945602417E0,-1.186019897E0,7.098449707E0,8.207460623E0
2.058624268E0,3.803924561E0,-1.159378052E0,6.898178101E0,7.962340148E0
2.061126709E0,3.671829224E0,-1.140213013E0,6.694717407E0,7.720210925E0
2.063598633E0,3.545059204E0,-1.119964600E0,6.514678955E0,7.500853775E0
2.066070557E0,3.415100098E0,-1.113571167E0,6.348510742E0,7.294281189E0
2.068572999E0,3.276611328E0,-1.130615234E0,6.185516357E0,7.090492593E0
2.071044922E0,3.133865356E0,-1.155120850E0,6.028930664E0,6.892272572E0
2.073516846E0,2.984725952E0,-1.173233032E0,5.880859375E0,6.698475330E0
2.076019288E0,2.840927124E0,-1.182815552E0,5.750885010E0,6.522468701E0
2.078491211E0,2.712020874E0,-1.175354004E0,5.621994019E0,6.351640024E0
2.080993653E0,2.586318970E0,-1.162582397E0,5.508010864E0,6.195064755E0
2.083465577E0,2.468078613E0,-1.149795532E0,5.400421143E0,6.047974068E0
2.085937500E0,2.360488892E0,-1.133819580E0,5.296020508E0,5.908069724E0
2.088439942E0,2.267807007E0,-1.126358032E0,5.203338623E0,5.786740349E0
2.090911866E0,2.201766968E0,-1.112503052E0,5.115997314E0,5.679689194E0
2.093383790E0,2.157012939E0,-1.094406128E0,5.028640747E0,5.580112665E0
2.095886231E0,2.095230103E0,-1.084808350E0,4.950881958E0,5.484344127E0
2.098358155E0,2.000427246E0,-1.072036743E0,4.884826660E0,5.386325598E0
2.100860596E0,1.913070679E0,-1.045394897E0,4.823043823E0,5.292867052E0
2.103332520E0,1.858749390E0,-9.921417236E-1,4.758071899E0,5.203704709E0
2.105804444E0,1.834243774E0,-9.228973389E-1,4.699478149E0,5.128477805E0
2.108306885E0,1.808685303E0,-8.536529541E-1,4.635559082E0,5.048611086E0
2.110778809E0,1.768203735E0,-7.737579346E-1,4.575897217E0,4.966294507E0
2.113250733E0,1.739440918E0,-6.821441650E-1,4.517318726E0,4.888470501E0
2.115753174E0,1.730911255E0,-5.947875977E-1,4.454467773E0,4.815818643E0
2.118225098E0,1.726654053E0,-5.053100586E-1,4.391616821E0,4.745837205E0
2.120727540E0,1.714935303E0,-4.200897217E-1,4.321304321E0,4.668099132E0
2.123199463E0,1.707473755E0,-3.391265869E-1,4.250991821E0,4.593626555E0
2.125671387E0,1.702148438E0,-2.677612305E-1,4.181762695E0,4.522846960E0
2.128173829E0,1.697891235E0,-1.921234131E-1,4.105056763E0,4.446485925E0
2.130645752E0,1.694702148E0,-1.122283936E-1,4.023025513E0,4.366846100E0
2.133117676E0,1.688308716E0,-3.765869141E-2,3.932479858E0,4.279743256E0
2.135620118E0,1.681915283E0,2.200317383E-2,3.846191406E0,4.197917519E0
2.138092041E0,1.668060303E0,7.418823242E-2,3.748199463E0,4.103282623E0
2.140594483E0,1.651016235E0,1.136169434E-1,3.646987915E0,4.004907523E0
2.143066407E0,1.629714966E0,1.413116455E-1,3.540466309E0,3.900107887E0
2.145538331E0,1.603088379E0,1.508941650E-1,3.437133789E0,3.795596143E0
2.148040772E0,1.573257446E0,1.466369629E-1,3.333801270E0,3.689291571E0
2.150512696E0,1.538101196E0,1.242675781E-1,3.228347778E0,3.578187684E0
2.152984620E0,1.502944946E0,9.017944336E-2,3.129272461E0,3.472653449E0
2.155487061E0,1.460342407E0,4.223632812E-2,3.031265259E0,3.364959572E0
2.157958985E0,1.409210205E0,-1.528930664E-2,2.937530518E0,3.258096485E0
2.160461426E0,1.353805542E0,-8.239746094E-2,2.841659546E0,3.148747015E0
2.162933350E0,1.296279907E0,-1.409912109E-1,2.743652344E0,3.037737366E0
2.165405274E0,1.236633301E0,-1.921234131E-1,2.664825439E0,2.944056377E0
2.167907715E0,1.171646118E0,-2.304687500E-1,2.592376709E0,2.854170190E0
2.170379639E0,1.101348877E0,-2.624359131E-1,2.516754150E0,2.759690818E0
2.172851563E0,1.023574829E0,-2.784118652E-1,2.430465698E0,2.651863893E0
2.175323487E0,9.586029053E-1,-2.933197021E-1,2.350570679E0,2.555413566E0
2.177825928E0,8.925476074E-1,-3.082427979E-1,2.281326294E0,2.469029063E0
2.180328370E0,8.233032227E-1,-3.156890869E-1,2.216339111E0,2.385298064E0
2.182800293E0,7.498016357E-1,-3.092956543E-1,2.163085938E0,2.310153040E0
2.185272217E0,6.784362793E-1,-2.901306152E-1,2.113006592E0,2.238135031E0
2.187774659E0,6.145172119E-1,-2.528381348E-1,2.066146851E0,2.170373547E0
2.190246582E0,5.538024902E-1,-2.091674805E-1,2.020339966E0,2.105284259E0
2.192718506E0,4.941406250E-1,-1.548309326E-1,1.974533081E0,2.041305578E0
2.195190430E0,4.344940186E-1,-9.730529785E-2,1.926589966E0,1.977372567E0
2.197692872E0,3.844146729E-1,-5.151367188E-2,1.882919312E0,1.922449852E0
2.200195313E0,3.407440186E-1,-3.233337402E-2,1.838180542E0,1.869775291E0
2.202667237E0,2.991943359E-1,-4.191589355E-2,1.794494629E0,1.819748655E0
2.205139161E0,2.544555664E-1,-8.132934570E-2,1.757217407E0,1.777406851E0
2.207641602E0,2.225036621E-1,-1.314086914E-1,1.714599609E0,1.733963075E0
2.210113526E0,1.948089600E-1,-1.931915283E-1,1.674118042E0,1.696450623E0
2.212585450E0,1.713714600E-1,-2.549743652E-1,1.631515503E0,1.660187622E0
2.215057374E0,1.500549316E-1,-3.167572021E-1,1.588897705E0,1.627097884E0
2.217559815E0,1.319580078E-1,-3.881225586E-1,1.536697388E0,1.590437329E0
2.220031739E0,1.170349121E-1,-4.626922607E-1,1.489837646E0,1.564416029E0
2.222534180E0,1.031951904E-1,-5.351409912E-1,1.433380127E0,1.533493957E0
2.225006104E0,9.254455566E-2,-6.161041260E-1,1.373718262E0,1.508393401E0
2.227508545E0,8.827209473E-2,-6.981201172E-1,1.314071655E0,1.490619997E0
2.229980469E0,8.401489258E-2,-7.780151367E-1,1.250152588E0,1.474872045E0
2.232452393E0,7.868957520E-2,-8.621673584E-1,1.193695068E0,1.474595714E0
2.234924317E0,7.975769043E-2,-9.378051758E-1,1.144683838E0,1.481938233E0
2.237426758E0,7.975769043E-2,-1.017700195E0,1.092483521E0,1.495190697E0
2.239898682E0,7.550048828E-2,-1.102920532E0,1.036026001E0,1.515085443E0
2.242401124E0,6.697082520E-2,-1.186019897E0,9.806365967E-1,1.540381908E0
2.244873047E0,6.271362305E-2,-1.262710571E0,9.284362793E-1,1.568555039E0
2.247375489E0,6.164550781E-2,-1.334091187E0,8.719787598E-1,1.594975367E0
2.249847413E0,6.378173828E-2,-1.377761841E0,8.059387207E-1,1.597445781E0
2.252319336E0,6.590270996E-2,-1.383087158E0,7.324371338E-1,1.566441001E0
2.254791260E0,7.122802734E-2,-1.372436523E0,6.695861816E-1,1.528725318E0
2.257293702E0,7.443237305E-2,-1.352188110E0,6.067352295E-1,1.483940869E0
2.259765625E0,7.336425781E-2,-1.336212158E0,5.353546143E-1,1.441336119E0
2.262268067E0,6.910705566E-2,-1.317047119E0,4.682464600E-1,1.399515504E0
2.264739991E0,6.483459473E-2,-1.295730591E0,4.032592773E-1,1.358579896E0
2.267242432E0,6.057739258E-2,-1.264846802E0,3.361511230E-1,1.310154430E0
2.269714356E0,5.525207520E-2,-1.229690552E0,2.647857666E-1,1.259088221E0
2.272186280E0,5.525207520E-2,-1.191345215E0,2.019348145E-1,1.209600712E0
2.274658204E0,4.885864258E-2,-1.148727417E0,1.337585449E-1,1.157520278E0
2.277160645E0,4.034423828E-2,-1.103988647E0,6.770324707E-2,1.106798230E0
2.279632569E0,2.969360352E-2,-1.065643311E0,4.852294922E-3,1.066067972E0
2.282135010E0,1.583862305E-2,-1.027282715E0,-5.799865723E-2,1.029040564E0
2.284606934E0,4.119873047E-3,-9.963989258E-1,-1.176452637E-1,1.003328561E0
2.287078858E0,-1.078796387E-2,-9.633789062E-1,-1.783752441E-1,9.798127499E-1
2.289581299E0,-2.677917480E-2,-9.356689453E-1,-2.337646484E-1,9.648001919E-1
2.292053223E0,-4.275512695E-2,-9.111785889E-1,-2.880859375E-1,9.565918299E-1
2.294525147E0,-6.086730957E-2,-8.909301758E-1,-3.413543701E-1,9.560252159E-1
2.297027588E0,-7.791137695E-2,-8.728179932E-1,-3.946228027E-1,9.610455703E-1
2.299499512E0,-9.814453125E-2,-8.568420410E-1,-4.414978027E-1,9.688812838E-1
2.302001954E0,-1.173248291E-1,-8.408660889E-1,-4.926300049E-1,9.815830157E-1
2.304473877E0,-1.396942139E-1,-8.259582520E-1,-5.416259766E-1,9.975370699E-1
2.306976319E0,-1.663208008E-1,-8.067779541E-1,-5.938262939E-1,1.015471784E0
2.309448243E0,-1.950836182E-1,-7.961273193E-1,-6.470947266E-1,1.044321747E0
2.311920166E0,-2.238464355E-1,-7.929229736E-1,-7.046051025E-1,1.084113656E0
2.314422608E0,-2.515411377E-1,-8.025207520E-1,-7.631988525E-1,1.135687012E0
2.316894532E0,-2.813720703E-1,-8.302154541E-1,-8.185882568E-1,1.199380955E0
2.319396973E0,-3.133239746E-1,-8.760223389E-1,-8.761138916E-1,1.277952504E0
2.321868897E0,-3.495483398E-1,-9.378051758E-1,-9.357757568E-1,1.370160157E0
2.324340821E0,-3.868255615E-1,-1.021957397E0,-9.954223633E-1,1.478139580E0
2.326843262E0,-4.198608398E-1,-1.114639282E0,-1.056152344E0,1.591905031E0
2.329315186E0,-4.528808594E-1,-1.223297119E0,-1.120071411E0,1.719336174E0
2.331787110E0,-4.837646484E-1,-1.333023071E0,-1.183975220E0,1.847370040E0
2.334259034E0,-5.210571289E-1,-1.455520630E0,-1.251098633E0,1.988790744E0
2.336761475E0,-5.594024658E-1,-1.583358765E0,-1.320327759E0,2.136169817E0
2.339263916E0,-5.956268311E-1,-1.717575073E0,-1.387451172E0,2.286887887E0
2.341735840E0,-6.339721680E-1,-1.869918823E0,-1.458816528E0,2.454926227E0
2.344207764E0,-6.723175049E-1,-2.027572632E0,-1.530197144E0,2.627653878E0
2.346710206E0,-7.106781006E-1,-2.192687988E0,-1.595169067E0,2.803124744E0
2.349182129E0,-7.522125244E-1,-2.362060547E0,-1.662277222E0,2.984680765E0
2.351654053E0,-7.926940918E-1,-2.526123047E0,-1.727264404E0,3.161187102E0
2.354125977E0,-8.385009766E-1,-2.692291260E0,-1.789047241E0,3.339491899E0
2.356628418E0,-8.843078613E-1,-2.853149414E0,-1.849777222E0,3.513422511E0
2.359100342E0,-9.396972656E-1,-3.002288818E0,-1.905166626E0,3.677829383E0
2.361602784E0,-9.972229004E-1,-3.142898560E0,-1.958435059E0,3.835066199E0
2.364074707E0,-1.057952881E0,-3.279251099E0,-1.995712280E0,3.981911547E0
2.366546631E0,-1.126129150E0,-3.419876099E0,-2.025543213E0,4.131167474E0
2.369049073E0,-1.208145142E0,-3.540252686E0,-2.059631348E0,4.270255853E0
2.371520997E0,-1.292312622E0,-3.645706177E0,-2.080932617E0,4.392211971E0
2.373992920E0,-1.371139526E0,-3.739456177E0,-2.093719482E0,4.499690808E0
2.376495362E0,-1.459548950E0,-3.794845581E0,-2.105438232E0,4.578646773E0
2.378967286E0,-1.544769287E0,-3.812957764E0,-2.120346069E0,4.628263877E0
2.381469727E0,-1.623596191E0,-3.795913696E0,-2.137390137E0,4.649028068E0
2.383941651E0,-1.700302124E0,-3.744781494E0,-2.153366089E0,4.642348680E0
2.386413575E0,-1.778060913E0,-3.656356812E0,-2.173614502E0,4.610319484E0
2.388916016E0,-1.854766846E0,-3.548767090E0,-2.188522339E0,4.563281488E0
2.391387940E0,-1.930404663E0,-3.418807983E0,-2.203445435E0,4.502208566E0
2.393859864E0,-1.998580933E0,-3.264343262E0,-2.218353271E0,4.423952295E0
2.396362305E0,-2.052902222E0,-3.108810425E0,-2.231140137E0,4.342475803E0
2.398834229E0,-2.106170654E0,-2.989501953E0,-2.234329224E0,4.285475917E0
2.401336670E0,-2.178604126E0,-2.956481934E0,-2.244979858E0,4.304304349E0
2.403808594E0,-2.269149780E0,-2.975662231E0,-2.265228271E0,4.374341729E0
2.406280518E0,-2.356506348E0,-3.026794434E0,-2.293991089E0,4.469563941E0
2.408782959E0,-2.428939819E0,-3.074722290E0,-2.321685791E0,4.554546160E0
2.411254883E0,-2.490722656E0,-3.121597290E0,-2.342987061E0,4.630081787E0
2.413726807E0,-2.558898926E0,-3.172729492E0,-2.371749878E0,4.715864038E0
2.416229249E0,-2.629211426E0,-3.212142944E0,-2.409042358E0,4.799385388E0
2.418701172E0,-2.693130493E0,-3.260086060E0,-2.453781128E0,4.888983002E0
2.421203614E0,-2.755981445E0,-3.321868896E0,-2.492126465E0,4.984068720E0
2.423675538E0,-2.825225830E0,-3.381530762E0,-2.535797119E0,5.083986459E0
2.426147461E0,-2.898727417E0,-3.441177368E0,-2.586929321E0,5.190041005E0
2.428649903E0,-2.972229004E0,-3.505096436E0,-2.643386841E0,5.301635622E0
2.431121827E0,-3.044662476E0,-3.576461792E0,-2.706237793E0,5.420772227E0
2.433593750E0,-3.120300293E0,-3.636123657E0,-2.772293091E0,5.535637104E0
2.436096192E0,-3.193801880E0,-3.690444946E0,-2.834075928E0,5.643734642E0
2.438568116E0,-3.264114380E0,-3.743713379E0,-2.893737793E0,5.748352021E0
2.441070557E0,-3.339736938E0,-3.784194946E0,-2.955520630E0,5.848852572E0
2.443542481E0,-3.416442871E0,-3.822540283E0,-3.016235352E0,5.948241068E0
2.446014405E0,-3.488876343E0,-3.853439331E0,-3.068435669E0,6.036269566E0
2.448516846E0,-3.562377930E0,-3.869415283E0,-3.114242554E0,6.112398697E0
2.450988770E0,-3.638015747E0,-3.861953735E0,-3.162170410E0,6.176501189E0
2.453460694E0,-3.715789795E0,-3.833190918E0,-3.198394775E0,6.223357257E0
2.455963135E0,-3.794616699E0,-3.792709351E0,-3.230346680E0,6.262499484E0
2.458435059E0,-3.873443604E0,-3.737319946E0,-3.261245728E0,6.293397288E0
2.460937500E0,-3.951202393E0,-3.664886475E0,-3.284683228E0,6.311302332E0
2.463409424E0,-4.027908325E0,-3.578598022E0,-3.299591064E0,6.318046413E0
2.465881348E0,-4.100341797E0,-3.480590820E0,-3.313446045E0,6.317138593E0
2.468383790E0,-4.169586182E0,-3.367675781E0,-3.321960449E0,6.305720444E0
2.470855713E0,-4.238830566E0,-3.238784790E0,-3.317703247E0,6.282082960E0
2.473327637E0,-4.303802490E0,-3.101364136E0,-3.318771362E0,6.257429083E0
2.475830079E0,-4.369857788E0,-2.954345703E0,-3.308120728E0,6.226353537E0
2.478302002E0,-4.433776855E0,-2.799896240E0,-3.297470093E0,6.194441474E0
2.480804444E0,-4.501953125E0,-2.637969971E0,-3.285751343E0,6.166249216E0
2.483276368E0,-4.563735962E0,-2.474975586E0,-3.271896362E0,6.136651847E0
2.485748291E0,-4.619125366E0,-2.305603027E0,-3.253784180E0,6.102395919E0
2.488250733E0,-4.681976318E0,-2.134094238E0,-3.238876343E0,6.079932601E0
2.490722657E0,-4.744827271E0,-1.958328247E0,-3.223968506E0,6.061551639E0
2.493194581E0,-4.805541992E0,-1.775100708E0,-3.205856323E0,6.043321200E0
2.495666504E0,-4.867340088E0,-1.587615967E0,-3.187744141E0,6.031022856E0
2.498168946E0,-4.930191040E0,-1.400131226E0,-3.166442871E0,6.024409647E0
2.500671387E0,-4.993041992E0,-1.219039917E0,-3.141937256E0,6.023976791E0
2.503143311E0,-5.055877686E0,-1.041137695E0,-3.119567871E0,6.031382145E0
2.505615235E0,-5.121932983E0,-8.706970215E-1,-3.096130371E0,6.048002485E0
2.508117676E0,-5.175201416E0,-6.970520020E-1,-3.075897217E0,6.060506157E0
2.510589600E0,-5.234848022E0,-5.191650391E-1,-3.064178467E0,6.087885990E0
2.513061524E0,-5.292373657E0,-3.455200195E-1,-3.051391602E0,6.118790217E0
2.515563965E0,-5.348831177E0,-1.772003174E-1,-3.043930054E0,6.156858378E0
2.518035889E0,-5.404220581E0,-3.019714355E-2,-3.036468506E0,6.198923531E0
2.520538331E0,-5.461746216E0,9.443664551E-2,-3.027954102E0,6.245646167E0
2.523010254E0,-5.521408081E0,1.871185303E-1,-3.014099121E0,6.293310262E0
2.525482178E0,-5.578933716E0,2.584838867E-1,-3.005584717E0,6.342306742E0
2.527984620E0,-5.633255005E0,3.213348389E-1,-2.991729736E0,6.386490808E0
2.530456543E0,-5.682266235E0,3.895111084E-1,-2.982147217E0,6.429080066E0
2.532928467E0,-5.727005005E0,4.406433105E-1,-2.971496582E0,6.467035240E0
2.535430909E0,-5.772811890E0,4.789886475E-1,-2.958709717E0,6.504517694E0
2.537902832E0,-5.814346313E0,4.981689453E-1,-2.949127197E0,6.538512566E0
2.540405274E0,-5.860153198E0,5.120239258E-1,-2.943801880E0,6.577958157E0
2.542877198E0,-5.901702881E0,5.194702148E-1,-2.945922852E0,6.616525345E0
2.545349122E0,-5.936859131E0,5.152130127E-1,-2.948059082E0,6.648518116E0
2.547851563E0,-5.959228516E0,4.960327148E-1,-2.946990967E0,6.666573986E0
2.550323487E0,-5.973083496E0,4.502258301E-1,-2.943801880E0,6.674308897E0
2.552795411E0,-5.984802246E0,3.841857910E-1,-2.942733765E0,6.680204986E0
2.555297852E0,-5.989059448E0,3.319854736E-1,-2.944869995E0,6.682163326E0
2.557769776E0,-5.990127563E0,3.064270020E-1,-2.945922852E0,6.682363892E0
2.560272217E0,-5.996520996E0,2.883148193E-1,-2.941665649E0,6.685415940E0
2.562744141E0,-6.005035400E0,2.616882324E-1,-2.935272217E0,6.689151955E0
2.565216065E0,-6.011428833E0,2.158813477E-1,-2.931015015E0,6.691392261E0
2.567718506E0,-6.022079468E0,1.711273193E-1,-2.925689697E0,6.697341703E0
2.570190430E0,-6.023147583E0,1.423645020E-1,-2.916107178E0,6.693448702E0
2.572662354E0,-6.021011353E0,1.359863281E-1,-2.907577515E0,6.687680988E0
2.575164795E0,-6.015686035E0,1.487579346E-1,-2.904388428E0,6.681772185E0
2.577636719E0,-6.014617920E0,1.626129150E-1,-2.894790649E0,6.676966721E0
2.580108643E0,-6.022079468E0,1.626129150E-1,-2.882019043E0,6.678167252E0
2.582611084E0,-6.026336670E0,1.764526367E-1,-2.868164062E0,6.676393808E0
2.585083008E0,-6.030609131E0,1.935119629E-1,-2.856445312E0,6.675700202E0
2.587585450E0,-6.040191650E0,2.148132324E-1,-2.844726562E0,6.680009664E0
2.590057374E0,-6.050842285E0,2.350463867E-1,-2.841537476E0,6.688966616E0
2.592529297E0,-6.066818237E0,2.574157715E-1,-2.845794678E0,6.706049042E0
2.595031739E0,-6.095581055E0,2.691345215E-1,-2.852188110E0,6.735244524E0
2.597503663E0,-6.133926392E0,2.819213867E-1,-2.863906860E0,6.775433208E0
2.600006104E0,-6.186126709E0,3.096160889E-1,-2.892669678E0,6.836048833E0
2.602478028E0,-6.246856689E0,3.415832520E-1,-2.924621582E0,6.906034247E0
2.604949952E0,-6.313964844E0,3.639526367E-1,-2.952316284E0,6.979597769E0
2.607452393E0,-6.385330200E0,3.777923584E-1,-2.983215332E0,7.057955975E0
2.609924317E0,-6.467361450E0,3.746032715E-1,-3.013046265E0,7.144616122E0
2.612396241E0,-6.546188354E0,3.575592041E-1,-3.037536621E0,7.225445265E0
2.614898682E0,-6.622894287E0,3.373107910E-1,-3.069503784E0,7.307418203E0
2.617370606E0,-6.697463989E0,3.085479736E-1,-3.100387573E0,7.386719762E0
2.619842530E0,-6.770965576E0,2.744598389E-1,-3.128082275E0,7.463658738E0
2.622344971E0,-6.848724365E0,2.425079346E-1,-3.141937256E0,7.538939266E0
2.624816895E0,-6.919036865E0,1.913757324E-1,-3.148330688E0,7.604056939E0
2.627319336E0,-6.990402222E0,1.327819824E-1,-3.143005371E0,7.665626983E0
2.629791260E0,-7.068176270E0,6.460571289E-2,-3.136611938E0,7.733150983E0
2.632263184E0,-7.145935059E0,2.822875977E-3,-3.139801025E0,7.805302448E0
2.634765625E0,-7.220504761E0,-4.937744141E-2,-3.145126343E0,7.875909271E0
2.637237549E0,-7.288681030E0,-8.772277832E-2,-3.137680054E0,7.935842902E0
2.639709473E0,-7.361114502E0,-1.345977783E-1,-3.125961304E0,7.998484691E0
2.642211915E0,-7.435684204E0,-1.995849609E-1,-3.114242554E0,8.063977953E0
2.644683838E0,-7.512390137E0,-2.730865479E-1,-3.096130371E0,8.129981864E0
2.647186280E0,-7.582687378E0,-3.423309326E-1,-3.074829102E0,8.189561181E0
2.649658204E0,-7.639144897E0,-4.083709717E-1,-3.041809082E0,8.232612229E0
2.652130127E0,-7.692413330E0,-4.733581543E-1,-3.007720947E0,8.273069326E0
2.654632569E0,-7.741424561E0,-5.404663086E-1,-2.977890015E0,8.312014617E0
2.657104493E0,-7.782958984E0,-5.990447998E-1,-2.953384399E0,8.346004112E0
2.659576416E0,-7.813858032E0,-6.448516846E-1,-2.928878784E0,8.369620181E0
2.662078858E0,-7.842620850E0,-6.832122803E-1,-2.904388428E0,8.391004287E0
2.664550782E0,-7.871383667E0,-7.162322998E-1,-2.883071899E0,8.413309285E0
2.667053223E0,-7.896942139E0,-7.481842041E-1,-2.862838745E0,8.433108586E0
2.669525147E0,-7.921447754E0,-7.620391846E-1,-2.844726562E0,8.451183790E0
2.671997071E0,-7.942749023E0,-7.641754150E-1,-2.822357178E0,8.463860003E0
2.674499512E0,-7.972579956E0,-7.695007324E-1,-2.805313110E0,8.486692181E0
2.676971436E0,-8.005599976E0,-7.588348389E-1,-2.798919678E0,8.514658692E0
2.679443360E0,-8.027969360E0,-7.279510498E-1,-2.788269043E0,8.529516343E0
2.681945801E0,-8.042892456E0,-6.832122803E-1,-2.772293091E0,8.534665023E0
2.684417725E0,-8.057800293E0,-6.480560303E-1,-2.752044678E0,8.539430431E0
2.686920166E0,-8.064193726E0,-6.310119629E-1,-2.736068726E0,8.539055487E0
2.689392090E0,-8.066329956E0,-6.384735107E-1,-2.717956543E0,8.535842967E0
2.691864014E0,-8.065261841E0,-6.672363281E-1,-2.692398071E0,8.528930780E0
2.694366456E0,-8.053543091E0,-7.087707520E-1,-2.660430908E0,8.511157672E0
2.696838379E0,-8.035430908E0,-7.460632324E-1,-2.626342773E0,8.486603360E0
2.699310303E0,-8.008804321E0,-7.737579346E-1,-2.592254639E0,8.453368093E0
2.701812745E0,-7.975769043E0,-7.971954346E-1,-2.553909302E0,8.412542131E0
2.704284668E0,-7.944885254E0,-8.003845215E-1,-2.515563965E0,8.371969848E0
2.706787110E0,-7.911865234E0,-7.897338867E-1,-2.477218628E0,8.328139242E0
2.709259034E0,-7.872451782E0,-7.662963867E-1,-2.442062378E0,8.278065950E0
2.711730957E0,-7.833023071E0,-7.226257324E-1,-2.411163330E0,8.227523746E0
2.714233399E0,-7.790420532E0,-6.736145020E-1,-2.382400513E0,8.174364854E0
2.716705323E0,-7.753128052E0,-6.139678955E-1,-2.358963013E0,8.127278613E0
2.719177247E0,-7.715850830E0,-5.436553955E-1,-2.339797974E0,8.081124289E0
2.721679688E0,-7.680694580E0,-4.648284912E-1,-2.329147339E0,8.039531211E0
2.724151612E0,-7.650863647E0,-3.923950195E-1,-2.309967041E0,8.001602098E0
2.726623536E0,-7.631698608E0,-3.465881348E-1,-2.277999878E0,7.971965280E0
2.729125977E0,-7.617843628E0,-2.986450195E-1,-2.265228271E0,7.953111939E0
2.731597901E0,-7.592285156E0,-2.283477783E-1,-2.247116089E0,7.921140531E0
2.734100342E0,-7.549667358E0,-1.463165283E-1,-2.204498291E0,7.866301448E0
2.736572266E0,-7.507064819E0,-7.493591309E-2,-2.153366089E0,7.810161529E0
2.739044190E0,-7.469772339E0,-2.275085449E-2,-2.110763550E0,7.762302439E0
2.741546631E0,-7.428222656E0,-3.662109375E-4,-2.058563232E0,7.708188798E0
2.744018555E0,-7.387756348E0,-6.759643555E-3,-1.996780396E0,7.652850547E0
2.746520997E0,-7.362182617E0,-1.635742188E-2,-1.938186646E0,7.613052471E0
2.748992920E0,-7.335556030E0,-2.807617188E-2,-1.873199463E0,7.571000381E0
2.751464844E0,-7.315307617E0,-3.126525879E-2,-1.797576904E0,7.532993149E0
2.753967286E0,-7.295074463E0,-5.577087402E-2,-1.705963135E0,7.492097972E0
2.756439209E0,-7.276962280E0,-9.730529785E-2,-1.614349365E0,7.454513547E0
2.758911133E0,-7.258850098E0,-1.069030762E-1,-1.538711548E0,7.420914111E0
2.761413575E0,-7.232223511E0,-8.665466309E-2,-1.450302124E0,7.376716220E0
2.763885499E0,-7.198135376E0,-3.233337402E-2,-1.356552124E0,7.324918566E0
2.766357422E0,-7.172561646E0,4.330444336E-2,-1.272399902E0,7.284676887E0
2.768859864E0,-7.147003174E0,1.370391846E-1,-1.194625854E0,7.247452314E0
2.771331788E0,-7.120361328E0,2.467651367E-1,-1.116867065E0,7.211645479E0
2.773834229E0,-7.092666626E0,3.543548584E-1,-1.038040161E0,7.176978097E0
2.776306153E0,-7.057510376E0,4.534301758E-1,-9.687957764E-1,7.138110176E0
2.778778077E0,-7.019165039E0,5.247955322E-1,-9.016876221E-1,7.096275697E0
2.781280518E0,-6.980819702E0,5.620880127E-1,-8.399047852E-1,7.053596721E0
2.783752442E0,-6.940338135E0,5.833892822E-1,-7.972869873E-1,7.010299781E0
2.786224366E0,-6.900924683E0,6.057586670E-1,-7.621307373E-1,6.969257371E0
2.788726807E0,-6.856185913E0,6.291961670E-1,-7.408294678E-1,6.924738363E0
2.791198731E0,-6.814636230E0,6.345214844E-1,-7.333679199E-1,6.883292306E0
2.793701172E0,-6.784805298E0,6.196136475E-1,-7.440338135E-1,6.853545821E0
2.796173096E0,-6.760314941E0,5.780639648E-1,-7.578735352E-1,6.827180117E0
2.798645020E0,-6.743270874E0,5.162811279E-1,-7.855682373E-1,6.808477491E0
2.801147461E0,-6.729415894E0,4.321289062E-1,-8.239288330E-1,6.793425674E0
2.803619385E0,-6.721954346E0,3.362426758E-1,-8.633422852E-1,6.785505822E0
2.806091309E0,-6.717697144E0,2.180023193E-1,-8.995513916E-1,6.781163074E0
2.808593750E0,-6.714508057E0,7.739257812E-2,-9.283142090E-1,6.778818136E0
2.811065674E0,-6.712371826E0,-8.879089355E-2,-9.464263916E-1,6.779346744E0
2.813568116E0,-6.708114624E0,-2.752075195E-1,-9.538879395E-1,6.781183023E0
2.816040040E0,-6.702789307E0,-4.904022217E-1,-9.560089111E-1,6.788360028E0
2.818511963E0,-6.694259644E0,-7.311401367E-1,-9.357757568E-1,6.798775944E0
2.821014405E0,-6.684677124E0,-9.974670410E-1,-8.931579590E-1,6.817446728E0
2.823486329E0,-6.664428711E0,-1.276565552E0,-8.356323242E-1,6.836849496E0
2.825958252E0,-6.634613037E0,-1.571640015E0,-7.568054199E-1,6.860094528E0
2.828460694E0,-6.594131470E0,-1.865646362E0,-6.620025635E-1,6.884871356E0
2.830932618E0,-6.529144287E0,-2.134094238E0,-5.554809570E-1,6.891490581E0
2.833435059E0,-6.450317383E0,-2.373779297E0,-4.329681396E-1,6.886863139E0
2.835906983E0,-6.357635498E0,-2.572982788E0,-3.061981201E-1,6.865386139E0
2.838378907E0,-6.253250122E0,-2.735977173E0,-1.762390137E-1,6.827867044E0
2.840881348E0,-6.131805420E0,-2.849960327E0,-4.734802246E-2,6.761919358E0
2.843353272E0,-6.001846313E0,-2.925582886E0,7.942199707E-2,6.677387382E0
2.845825196E0,-5.860153198E0,-2.950088501E0,2.029876709E-1,6.563963868E0
2.848327637E0,-5.699310303E0,-2.924530029E0,3.233642578E-1,6.414014208E0
2.850799561E0,-5.527801514E0,-2.848892212E0,4.341583252E-1,6.233880803E0
2.853302002E0,-5.346694946E0,-2.723190308E0,5.396118164E-1,6.024457919E0
2.855773926E0,-5.159210205E0,-2.549545288E0,6.354980469E-1,5.789774511E0
2.858245850E0,-4.968536377E0,-2.337570190E0,7.196502686E-1,5.537913383E0
2.860748291E0,-4.777847290E0,-2.085098267E0,7.995452881E-1,5.273967404E0
2.863220215E0,-4.589294434E0,-1.794281006E0,8.698425293E-1,5.003767955E0
2.865692139E0,-4.407135010E0,-1.485351562E0,9.284362793E-1,4.742478485E0
2.868194581E0,-4.228179932E0,-1.165771484E0,9.774475098E-1,4.493543404E0
2.870666504E0,-4.058792114E0,-8.344726562E-1,1.020050049E0,4.267392663E0
2.873138428E0,-3.897949219E0,-5.010528564E-1,1.057342529E0,4.069770915E0
2.875640870E0,-3.748809814E0,-1.814727783E-1,1.081832886E0,3.906004325E0
2.878112793E0,-3.615646362E0,1.210632324E-1,1.103149414E0,3.782128178E0
2.880615235E0,-3.496337891E0,3.990936279E-1,1.118057251E0,3.692384918E0
2.883087159E0,-3.387680054E0,6.483764648E-1,1.123382568E0,3.627500046E0
2.885559082E0,-3.291809082E0,8.571624756E-1,1.122314453E0,3.581944203E0
2.888061524E0,-3.202331543E0,1.013763428E0,1.118057251E0,3.540154744E0
2.890533448E0,-3.124557495E0,1.124542236E0,1.109527588E0,3.501214968E0
2.893005372E0,-3.052124023E0,1.176742554E0,1.101013184E0,3.451436530E0
2.895507813E0,-2.981811523E0,1.177810669E0,1.089294434E0,3.386000634E0
2.897979737E0,-2.909378052E0,1.135192871E0,1.076507568E0,3.303333475E0
2.900482178E0,-2.831619263E0,1.055297852E0,1.060531616E0,3.202569049E0
2.902954102E0,-2.763442993E0,9.573059082E-1,1.038162231E0,3.103358277E0
2.905426026E0,-2.703781128E0,8.443756104E-1,1.008331299E0,3.006681654E0
2.907928467E0,-2.656906128E0,7.229461670E-1,9.774475098E-1,2.921849580E0
2.910400391E0,-2.612167358E0,6.015014648E-1,9.369659424E-1,2.839564667E0
2.912872315E0,-2.574890137E0,4.821929932E-1,8.943481445E-1,2.768109084E0
2.915374756E0,-2.547180176E0,3.767242432E-1,8.474731445E-1,2.710767185E0
2.917846680E0,-2.529083252E0,2.861785889E-1,7.974090576E-1,2.667212306E0
2.920349122E0,-2.507766724E0,2.116088867E-1,7.505340576E-1,2.626208985E0
2.922821045E0,-2.484344482E0,1.477050781E-1,7.175140381E-1,2.590098587E0
2.925292969E0,-2.466232300E0,7.313537598E-2,6.919555664E-1,2.562509131E0
2.927795411E0,-2.459838867E0,-7.827758789E-3,6.589202881E-1,2.546575047E0
2.930267334E0,-2.454513550E0,-8.453369141E-2,6.312255859E-1,2.535789512E0
2.932739258E0,-2.447052002E0,-1.399230957E-1,6.035308838E-1,2.524260585E0
2.935241700E0,-2.440658569E0,-1.708221436E-1,5.811614990E-1,2.514705379E0
2.937713624E0,-2.439590454E0,-1.953125000E-1,5.523986816E-1,2.508962507E0
2.940185547E0,-2.436401367E0,-2.198181152E-1,5.289611816E-1,2.502832707E0
2.942687989E0,-2.442794800E0,-2.485809326E-1,5.108489990E-1,2.507988360E0
2.945159913E0,-2.451309204E0,-2.784118652E-1,4.991302490E-1,2.517054029E0
2.947662354E0,-2.455581665E0,-3.114318848E-1,4.980773926E-1,2.524866773E0
2.950134278E0,-2.455581665E0,-3.508453369E-1,4.970092773E-1,2.529820544E0
2.952606202E0,-2.453445435E0,-4.051666260E-1,5.065917969E-1,2.537752893E0
2.955108643E0,-2.447052002E0,-4.808044434E-1,5.193786621E-1,2.547349722E0
2.957580567E0,-2.432144165E0,-5.692291260E-1,5.396118164E-1,2.555489767E0
2.960052491E0,-2.414031982E0,-6.682891846E-1,5.609283447E-1,2.566866076E0
2.962554932E0,-2.390594482E0,-7.886657715E-1,5.854187012E-1,2.584502028E0
2.965026856E0,-2.360763550E0,-9.090423584E-1,6.077880859E-1,2.601724218E0
2.967529297E0,-2.325607300E0,-1.004913330E0,6.312255859E-1,2.610889859E0
2.970001221E0,-2.275543213E0,-1.097595215E0,6.738433838E-1,2.614742258E0
2.972473145E0,-2.235061646E0,-1.196670532E0,7.324371338E-1,2.638936353E0
2.974975586E0,-2.203109741E0,-1.309585571E0,7.782287598E-1,2.678497135E0
2.977447510E0,-2.166885376E0,-1.394805908E0,8.165893555E-1,2.703274668E0
2.979919434E0,-2.127471924E0,-1.421432495E0,8.549346924E-1,2.697687983E0
2.982421875E0,-2.080596924E0,-1.387344360E0,8.922271729E-1,2.655122834E0
2.984893799E0,-2.030532837E0,-1.327697754E0,9.263153076E-1,2.596902959E0
2.987396241E0,-1.988983154E0,-1.258453369E0,9.582672119E-1,2.541266401E0
2.989868165E0,-1.946380615E0,-1.178558350E0,9.891662598E-1,2.481097977E0
2.992340088E0,-1.903762817E0,-1.077362061E0,1.015792847E0,2.411816117E0
2.994842530E0,-1.859024048E0,-9.527130127E-1,1.038162231E0,2.332683715E0
2.997314454E0,-1.818542480E0,-8.195648193E-1,1.057342529E0,2.257599714E0
2.999786377E0,-1.778060913E0,-6.768188477E-1,1.066925049E0,2.181264180E0
3.002288819E0,-1.735458374E0,-5.202178955E-1,1.061599731E0,2.099865809E0
3.004760743E0,-1.690719604E0,-3.604278564E-1,1.072250366E0,2.034247249E0
3.007263184E0,-1.649169922E0,-2.272796631E-1,1.091430664E0,1.990637679E0
3.009735108E0,-1.618270874E0,-1.420593262E-1,1.095687866E0,1.959467625E0
3.012207032E0,-1.587387085E0,-7.174682617E-2,1.095687866E0,1.930149545E0
3.014709473E0,-1.551162720E0,-1.434326172E-3,1.090362549E0,1.896048082E0
3.017181397E0,-1.508560181E0,6.781005859E-2,1.082901001E0,1.858232117E0
3.019683838E0,-1.470199585E0,1.210632324E-1,1.074386597E0,1.824951968E0
3.022155762E0,-1.430786133E0,1.690063477E-1,1.055206299E0,1.785825422E0
3.024627686E0,-1.396697998E0,2.094879150E-1,1.032836914E0,1.749686422E0
3.027130127E0,-1.355163574E0,2.435760498E-1,1.005142212E0,1.704731202E0
3.029602051E0,-1.316802979E0,2.733917236E-1,9.774475098E-1,1.662563308E0
3.032073975E0,-1.278457642E0,2.989654541E-1,9.454803467E-1,1.617951597E0
3.034576416E0,-1.240112305E0,3.128204346E-1,9.124603271E-1,1.571088477E0
3.037048340E0,-1.210281372E0,3.191986084E-1,8.730468750E-1,1.526066708E0
3.039520264E0,-1.174057007E0,3.500976562E-1,8.187103271E-1,1.473521233E0
3.042022706E0,-1.131454468E0,4.044342041E-1,7.771759033E-1,1.430999169E0
3.044494629E0,-1.095230103E0,4.427795410E-1,7.462768555E-1,1.397323100E0
3.046997071E0,-1.073928833E0,4.470367432E-1,7.143249512E-1,1.365073304E0
3.049468995E0,-1.060073853E0,4.268035889E-1,6.727752686E-1,1.326101217E0
3.051940918E0,-1.044097900E0,4.097595215E-1,6.386871338E-1,1.290722490E0
3.054443360E0,-1.029190063E0,3.884429932E-1,6.045989990E-1,1.255253001E0
3.056915284E0,-1.016403198E0,3.650054932E-1,5.736999512E-1,1.222880250E0
3.059387207E0,-1.011077881E0,3.564910889E-1,5.374908447E-1,1.199275108E0
3.061889649E0,-1.003616333E0,3.735351562E-1,4.938049316E-1,1.179244490E0
3.064361573E0,-9.887084961E-1,4.108123779E-1,4.554595947E-1,1.163509666E0
3.066864014E0,-9.759216309E-1,4.555664062E-1,4.266967773E-1,1.158461877E0
3.069335938E0,-9.663391113E-1,4.768676758E-1,3.958129883E-1,1.147990409E0
3.071807862E0,-9.674072266E-1,4.789886475E-1,3.681030273E-1,1.140529134E0
3.074310303E0,-9.578094482E-1,4.779357910E-1,3.425445557E-1,1.123903168E0
3.076782227E0,-9.450225830E-1,4.768676758E-1,3.159179688E-1,1.104660412E0
3.079254151E0,-9.269256592E-1,4.662170410E-1,3.020629883E-1,1.080644047E0
3.081756592E0,-9.088134766E-1,4.353179932E-1,2.892761230E-1,1.048391323E0
3.084228516E0,-8.875122070E-1,3.820495605E-1,2.839508057E-1,1.007108656E0
3.086700440E0,-8.640747070E-1,3.213348389E-1,2.839508057E-1,9.646290676E-1
3.089202881E0,-8.342437744E-1,2.584838867E-1,2.860870361E-1,9.190333982E-1
3.091674805E0,-8.022918701E-1,1.988372803E-1,2.924804688E-1,8.767857968E-1
3.094177247E0,-7.671356201E-1,1.263885498E-1,2.967376709E-1,8.321804915E-1
3.096649170E0,-7.298431396E-1,4.756164551E-2,3.063201904E-1,7.929471468E-1
3.099121094E0,-6.925659180E-1,-2.487182617E-2,3.180389404E-1,7.625056892E-1
3.101623536E0,-6.488800049E-1,-9.837341309E-2,3.265686035E-1,7.330550061E-1
3.104095459E0,-6.009521484E-1,-1.580352783E-1,3.308258057E-1,7.039633141E-1
3.106567383E0,-5.540771484E-1,-1.985168457E-1,3.308258057E-1,6.751711917E-1
3.109069825E0,-5.114746094E-1,-2.219543457E-1,3.255004883E-1,6.456164306E-1
3.111541749E0,-4.731140137E-1,-2.240753174E-1,3.084564209E-1,6.076117028E-1
3.114044190E0,-4.358367920E-1,-2.123565674E-1,2.914123535E-1,5.656590676E-1
3.116516114E0,-3.953552246E-1,-1.899871826E-1,2.701110840E-1,5.151319063E-1
3.118988038E0,-3.601989746E-1,-1.558990479E-1,2.413482666E-1,4.607567690E-1
3.121490479E0,-3.271789551E-1,-1.271362305E-1,2.072601318E-1,4.076351947E-1
3.123962403E0,-2.920227051E-1,-8.560180664E-2,1.784973145E-1,3.527977053E-1
3.126434327E0,-2.590026855E-1,-4.512023926E-2,1.475982666E-1,3.015020322E-1
3.128936768E0,-2.334289551E-1,-3.570556641E-3,1.071166992E-1,2.568575738E-1
3.131408692E0,-2.110595703E-1,3.477478027E-2,6.770324707E-2,2.243638947E-1
3.133911133E0,-1.865539551E-1,7.525634766E-2,3.147888184E-2,2.036094694E-1
3.136383057E0,-1.684570312E-1,1.136169434E-1,-2.609252930E-3,2.032077494E-1
3.138854981E0,-1.503448486E-1,1.434326172E-1,-4.202270508E-2,2.119962191E-1
3.141357422E0,-1.343688965E-1,1.753997803E-1,-7.611083984E-2,2.336941232E-1
3.143829346E0,-1.205139160E-1,1.956329346E-1,-1.069946289E-1,2.534634089E-1
3.146301270E0,-1.056060791E-1,2.126770020E-1,-1.368255615E-1,2.740536177E-1
3.148803711E0,-9.175109863E-2,2.190704346E-1,-1.613311768E-1,2.871199540E-1
3.151275635E0,-7.470703125E-2,2.148132324E-1,-1.858215332E-1,2.936928796E-1
3.153778077E0,-6.192016602E-2,2.020263672E-1,-2.028656006E-1,2.929218529E-1
3.156250000E0,-4.275512695E-2,1.849822998E-1,-2.220458984E-1,2.921486490E-1
3.158721924E0,-1.824951172E-2,1.626129150E-1,-2.337646484E-1,2.853452570E-1
3.161224366E0,5.187988281E-3,1.381072998E-1,-2.444152832E-1,2.807834969E-1
3.163696290E0,2.969360352E-2,1.168060303E-1,-2.508087158E-1,2.782631322E-1
3.166168213E0,5.845642090E-2,1.093444824E-1,-2.572021484E-1,2.855281320E-1
3.168670655E0,8.934020996E-2,1.072235107E-1,-2.572021484E-1,2.926286034E-1
3.171142579E0,1.202392578E-1,1.168060303E-1,-2.561340332E-1,3.061139833E-1
3.173645020E0,1.532592773E-1,1.413116455E-1,-2.550659180E-1,3.294176828E-1
3.176116944E0,1.937408447E-1,1.743316650E-1,-2.508087158E-1,3.617071416E-1
3.178588868E0,2.352905273E-1,2.073516846E-1,-2.486724854E-1,4.002428742E-1
3.181091309E0,2.768249512E-1,2.414398193E-1,-2.454833984E-1,4.418001119E-1
3.183563233E0,3.226318359E-1,2.723388672E-1,-2.454833984E-1,4.883869972E-1
3.186035157E0,3.748321533E-1,3.000335693E-1,-2.486724854E-1,5.407007406E-1
3.188507081E0,4.291687012E-1,3.362426758E-1,-2.550659180E-1,6.019165504E-1
3.191009522E0,4.856262207E-1,3.703308105E-1,-2.614593506E-1,6.643332955E-1
3.193511963E0,5.410156250E-1,4.001617432E-1,-2.721099854E-1,7.258589197E-1
3.195983887E0,5.964050293E-1,4.310607910E-1,-2.827606201E-1,7.883311061E-1
3.198455811E0,6.539306641E-1,4.555664062E-1,-3.008728027E-1,8.518747017E-1
3.200958252E0,7.082672119E-1,4.779357910E-1,-3.168487549E-1,9.112947916E-1
3.203430176E0,7.615203857E-1,5.013732910E-1,-3.370971680E-1,9.720714868E-1
3.205902100E0,8.169250488E-1,5.216064453E-1,-3.594665527E-1,1.033758203E0
3.208404541E0,8.669891357E-1,5.322570801E-1,-3.796997070E-1,1.085881959E0
3.210876465E0,9.117279053E-1,5.322570801E-1,-3.988800049E-1,1.128561310E0
3.213378907E0,9.564666748E-1,5.290679932E-1,-4.191284180E-1,1.170645152E0
3.215850831E0,9.969482422E-1,5.162811279E-1,-4.404296875E-1,1.205997641E0
3.218322754E0,1.035293579E0,5.034942627E-1,-4.564056396E-1,1.238404367E0
3.220825196E0,1.065124512E0,4.768676758E-1,-4.745178223E-1,1.259785763E0
3.223297120E0,1.093887329E0,4.470367432E-1,-4.904937744E-1,1.279459058E0
3.225799561E0,1.122650146E0,4.204101562E-1,-5.032806396E-1,1.300145935E0
3.228271485E0,1.140762329E0,3.863220215E-1,-5.096740723E-1,1.307803906E0
3.230743409E0,1.159927368E0,3.469085693E-1,-5.149993896E-1,1.315675274E0
3.233215332E0,1.182296753E0,3.096160889E-1,-5.181884766E-1,1.327481462E0
3.235717774E0,1.207870483E0,2.670135498E-1,-5.171203613E-1,1.340768738E0
3.238189698E0,1.233428955E0,2.339782715E-1,-5.128631592E-1,1.356142116E0
3.240692139E0,1.262191772E0,2.009582520E-1,-5.064697266E-1,1.374781391E0
3.243164063E0,1.294158936E0,1.796569824E-1,-4.990081787E-1,1.398618298E0
3.245666504E0,1.327178955E0,1.626129150E-1,-4.936828613E-1,1.425331437E0
3.248138428E0,1.357009888E0,1.615447998E-1,-4.883575439E-1,1.451229013E0
3.250610352E0,1.397491455E0,1.690063477E-1,-4.777069092E-1,1.486522588E0
3.253112793E0,1.434768677E0,1.892395020E-1,-4.713134766E-1,1.522008258E0
3.255584717E0,1.476318359E0,2.201385498E-1,-4.681243896E-1,1.564326476E0
3.258056641E0,1.518920898E0,2.638092041E-1,-4.659881592E-1,1.610546788E0
3.260559082E0,1.563674927E0,3.117523193E-1,-4.659881592E-1,1.661148323E0
3.263031006E0,1.611602783E0,3.618164062E-1,-4.638671875E-1,1.715618667E0
3.265502930E0,1.659545898E0,4.129486084E-1,-4.617309570E-1,1.771387766E0
3.267974854E0,1.710678101E0,4.694061279E-1,-4.638671875E-1,1.833557865E0
3.270477295E0,1.763931274E0,5.226745605E-1,-4.585418701E-1,1.896022912E0
3.272949219E0,1.819335938E0,5.674133301E-1,-4.553375244E-1,1.959406390E0
3.275451661E0,1.878982544E0,5.983123779E-1,-4.468231201E-1,2.021930761E0
3.277923584E0,1.938644409E0,6.281280518E-1,-4.351043701E-1,2.083795289E0
3.280426026E0,1.994033813E0,6.515655518E-1,-4.244537354E-1,2.140296589E0
3.282897950E0,2.047302246E0,6.707458496E-1,-4.084625244E-1,2.192758107E0
3.285369874E0,2.101623535E0,6.963043213E-1,-3.935546875E-1,2.248676607E0
3.287841797E0,2.159149170E0,7.197418213E-1,-3.765106201E-1,2.306883975E0
3.290344239E0,2.211349487E0,7.463836670E-1,-3.509368896E-1,2.360150807E0
3.292816163E0,2.265670776E0,7.772674561E-1,-3.275146484E-1,2.417576185E0
3.295318604E0,2.328521729E0,8.092346191E-1,-2.955474854E-1,2.482785215E0
3.297790528E0,2.390319824E0,8.411865234E-1,-2.614593506E-1,2.547466314E0
3.300292969E0,2.449966431E0,8.763427734E-1,-2.273712158E-1,2.611897746E0
3.302764893E0,2.517074585E0,9.200134277E-1,-1.868896484E-1,2.686450616E0
3.305236817E0,2.587387085E0,9.647521973E-1,-1.485443115E-1,2.765390414E0
3.307708741E0,2.652374268E0,1.016952515E0,-1.069946289E-1,2.842662400E0
3.310211182E0,2.724807739E0,1.087265015E0,-6.011962891E-2,2.934337540E0
3.312683106E0,2.796173096E0,1.175674438E0,-1.965332031E-2,3.033344791E0
3.315185547E0,2.868621826E0,1.282211304E0,2.296447754E-2,3.142226022E0
3.317657471E0,2.944244385E0,1.401519775E0,7.090759277E-2,3.261573327E0
3.320159913E0,3.019882202E0,1.522949219E0,1.167144775E-1,3.384181601E0
3.322631836E0,3.098709106E0,1.648651123E0,1.667785645E-1,3.513952723E0
3.325103760E0,3.182876587E0,1.767959595E0,2.125854492E-1,3.647132719E0
3.327575684E0,3.273422241E0,1.877685547E0,2.626495361E-1,3.782853547E0
3.330078125E0,3.362899780E0,1.987411499E0,3.073883057E-1,3.918339823E0
3.332550049E0,3.450256348E0,2.107788086E0,3.542633057E-1,4.058637945E0
3.335052491E0,3.539733887E0,2.230285645E0,3.968658447E-1,4.202545960E0
3.337524415E0,3.631347656E0,2.354919434E0,4.405517578E-1,4.350450228E0
3.340026856E0,3.719757080E0,2.475296021E0,4.916839600E-1,4.495045744E0
3.342498780E0,3.816696167E0,2.577560425E0,5.364227295E-1,4.636673023E0
3.344970704E0,3.921096802E0,2.648941040E0,5.832977295E-1,4.767821830E0
3.347442627E0,4.031890869E0,2.681961060E0,6.354980469E-1,4.883944807E0
3.349945069E0,4.153320312E0,2.669174194E0,6.919555664E-1,4.985314735E0
3.352416993E0,4.273696899E0,2.613784790E0,7.548065186E-1,5.066171039E0
3.354919434E0,4.399398804E0,2.537078857E0,8.197784424E-1,5.144270177E0
3.357391358E0,4.533630371E0,2.445480347E0,8.932800293E-1,5.228013741E0
3.359863282E0,4.660385132E0,2.342147827E0,9.817047119E-1,5.307408988E0
3.362365723E0,4.778640747E0,2.235610962E0,1.079711914E0,5.385085104E0
3.364837647E0,4.890487671E0,2.134414673E0,1.190490723E0,5.467162318E0
3.367309571E0,5.009796143E0,2.039611816E0,1.313003540E0,5.566152356E0
3.369812012E0,5.126983643E0,1.952255249E0,1.447219849E0,5.673773622E0
3.372283936E0,5.247344971E0,1.869171143E0,1.588897705E0,5.792497382E0
3.374786377E0,5.365600586E0,1.798858643E0,1.740173340E0,5.920622038E0
3.377258301E0,5.483840942E0,1.742401123E0,1.902084351E0,6.060230856E0
3.379760743E0,5.594635010E0,1.708312988E0,2.073593140E0,6.206292184E0
3.382232666E0,5.700088501E0,1.699783325E0,2.244033813E0,6.357354798E0
3.384704590E0,5.794891357E0,1.713638306E0,2.423004150E0,6.510627558E0
3.387176514E0,5.885452271E0,1.758377075E0,2.611557007E0,6.674628706E0
3.389678956E0,5.984512329E0,1.822296143E0,2.801177979E0,6.854323389E0
3.392150879E0,6.095306396E0,1.900054932E0,3.005706787E0,7.056716099E0
3.394653321E0,6.221008301E0,1.978881836E0,3.213424683E0,7.276195145E0
3.397125245E0,6.362686157E0,2.025756836E0,3.423294067E0,7.503759602E0
3.399597168E0,6.519271851E0,2.030014038E0,3.638473511E0,7.736947198E0
3.402099610E0,6.682266235E0,1.962905884E0,3.860046387E0,7.962765830E0
3.404571534E0,6.852706909E0,1.819091797E0,4.093338013E0,8.186824967E0
3.407043457E0,7.031677246E0,1.617767334E0,4.331954956E0,8.415906949E0
3.409545899E0,7.211700439E0,1.365295410E0,4.574844360E0,8.648806606E0
3.412017823E0,7.397048950E0,1.065948486E0,4.808135986E0,8.886548881E0
3.414520264E0,7.601593018E0,7.389221191E-1,5.041427612E0,9.151295792E0
3.416992188E0,7.823165894E0,3.980407715E-1,5.274719238E0,9.443676408E0
3.419464112E0,8.059646606E0,3.797912598E-2,5.510147095E0,9.763250834E0
3.421966553E0,8.298263550E0,-3.188934326E-1,5.743438721E0,1.009702725E1
3.424438477E0,8.544342041E0,-6.544494629E-1,5.967132568E0,1.044225819E1
3.426910401E0,8.790420532E0,-9.431304932E-1,6.184448242E0,1.078927191E1
3.429412842E0,9.023712158E0,-1.160446167E0,6.386856079E0,1.111602209E1
3.431884766E0,9.244232178E0,-1.294662476E0,6.574340820E0,1.141726485E1
3.434387207E0,9.454086304E0,-1.336212158E0,6.752243042E0,1.169435748E1
3.436859131E0,9.658615112E0,-1.293609619E0,6.917358398E0,1.195040246E1
3.439331055E0,9.851425171E0,-1.170028687E0,7.080337524E0,1.218813868E1
3.441833497E0,1.003144836E1,-9.718933105E-1,7.240127563E0,1.240943109E1
3.444305420E0,1.019230652E1,-7.247467041E-1,7.381805420E0,1.260553137E1
3.446777344E0,1.032226562E1,-4.392700195E-1,7.516036987E0,1.277626463E1
3.449279786E0,1.041708374E1,-1.186218262E-1,7.645996094E0,1.292249825E1
3.451782227E0,1.047779846E1,2.201385498E-1,7.756790161E0,1.303842457E1
3.454254151E0,1.050442505E1,5.588836670E-1,7.864379883E0,1.313406896E1
3.456726075E0,1.051828003E1,8.795318604E-1,7.979431152E0,1.323174639E1
3.459197999E0,1.051081848E1,1.155441284E0,8.102996826E0,1.332182072E1
3.461700440E0,1.048951721E1,1.371688843E0,8.230819702E0,1.340365229E1
3.464172364E0,1.045542908E1,1.522949219E0,8.361846924E0,1.347426642E1
3.466644288E0,1.041282654E1,1.596450806E0,8.504592896E0,1.353897012E1
3.469146729E0,1.037020874E1,1.578353882E0,8.662261963E0,1.360394107E1
3.471618653E0,1.032972717E1,1.470748901E0,8.831634521E0,1.366982568E1
3.474121094E0,1.028498840E1,1.305633545E0,9.001007080E0,1.372966838E1
3.476593018E0,1.024024963E1,1.116027832E0,9.172515869E0,1.379287055E1
3.479064942E0,1.019869995E1,9.338684082E-1,9.353622437E0,1.386996192E1
3.481567383E0,1.015609741E1,7.740783691E-1,9.527252197E0,1.394682926E1
3.484039307E0,1.010922241E1,6.483764648E-1,9.698760986E0,1.402436218E1
3.486511231E0,1.006127930E1,5.461120605E-1,9.863876343E0,1.410048354E1
3.489013672E0,1.001760864E1,4.534301758E-1,1.002366638E1,1.417857431E1
3.491485596E0,9.973937988E0,3.511657715E-1,1.018132019E1,1.425699959E1
3.493988038E0,9.921737671E0,2.659454346E-1,1.030490112E1,1.430743137E1
3.496459961E0,9.868469238E0,2.169342041E-1,1.041461182E1,1.434914230E1
3.498931885E0,9.817337036E0,2.052154541E-1,1.054351807E1,1.440791425E1
3.501434327E0,9.750228882E0,2.297210693E-1,1.066389465E1,1.445124161E1
3.503906250E0,9.677780151E0,2.733917236E-1,1.078427124E1,1.449257320E1
3.506378174E0,9.590438843E0,3.245391846E-1,1.090144348E1,1.452319913E1
3.508880616E0,9.494567871E0,3.682098389E-1,1.101863098E1,1.454966069E1
3.511352540E0,9.392303467E0,4.022979736E-1,1.113793945E1,1.457500955E1
3.513854981E0,9.278320312E0,4.172058105E-1,1.124978638E1,1.458831663E1
3.516326905E0,9.155807495E0,4.235992432E-1,1.135098267E1,1.458948439E1
3.518798829E0,9.013061523E0,4.225311279E-1,1.143194580E1,1.456376309E1
3.521301270E0,8.860733032E0,4.246673584E-1,1.149798584E1,1.452227980E1
3.523773194E0,8.702011108E0,4.395751953E-1,1.154486084E1,1.446381815E1
3.526245118E0,8.536895752E0,4.736633301E-1,1.157043457E1,1.438672660E1
3.528747559E0,8.356857300E0,5.162811279E-1,1.157043457E1,1.428210651E1
3.531219483E0,8.167236328E0,5.727386475E-1,1.155125427E1,1.415850465E1
3.533721924E0,7.975494385E0,6.260070801E-1,1.151397705E1,1.402041594E1
3.536193848E0,7.772033691E0,6.728668213E-1,1.145431519E1,1.385852062E1
3.538665772E0,7.564300537E0,7.016296387E-1,1.137762451E1,1.368068954E1
3.541168213E0,7.350189209E0,7.080230713E-1,1.128813171E1,1.348882855E1
3.543640137E0,7.125411987E0,6.750030518E-1,1.119332886E1,1.328599774E1
3.546112061E0,6.900650024E0,6.132202148E-1,1.108680725E1,1.307334329E1
3.548614502E0,6.679061890E0,5.184173584E-1,1.096748352E1,1.285162710E1
3.551086426E0,6.461761475E0,3.916473389E-1,1.084712219E1,1.263201523E1
3.553588868E0,6.255096436E0,2.456970215E-1,1.072886658E1,1.242156095E1
3.556060791E0,6.066543579E0,8.058166504E-2,1.060530090E1,1.221809525E1
3.558532715E0,5.895034790E0,-9.304809570E-2,1.048278809E1,1.202700874E1
3.561035157E0,5.733108521E0,-2.592315674E-1,1.034431458E1,1.182964828E1
3.563507081E0,5.587173462E0,-4.115600586E-1,1.020263672E1,1.163957409E1
3.565979004E0,5.458282471E0,-5.479125977E-1,1.005136108E1,1.145089147E1
3.568481446E0,5.338958740E0,-6.768188477E-1,9.893707275E0,1.126268209E1
3.570953370E0,5.215393066E0,-7.929229736E-1,9.727523804E0,1.106588320E1
3.573455811E0,5.092895508E0,-8.983917236E-1,9.560272217E0,1.086938348E1
3.575927735E0,4.968246460E0,-9.857482910E-1,9.398361206E0,1.067634609E1
3.578399659E0,4.841491699E0,-1.060317993E0,9.238571167E0,1.048405996E1
3.580902100E0,4.710464478E0,-1.117843628E0,9.090499878E0,1.029928337E1
3.583374024E0,4.577301025E0,-1.148727417E0,8.947753906E0,1.011600511E1
3.585845948E0,4.448410034E0,-1.151931763E0,8.798614502E0,9.926274013E0
3.588348389E0,4.318435669E0,-1.131683350E0,8.646286011E0,9.730768500E0
3.590820313E0,4.183151245E0,-1.088012695E0,8.487548828E0,9.524757796E0
3.593322754E0,4.051055908E0,-1.031555176E0,8.318176270E0,9.309522893E0
3.595794678E0,3.908309937E0,-9.729614258E-1,8.153060913E0,9.093620992E0
3.598266602E0,3.765563965E0,-9.154357910E-1,7.989013672E0,8.879292433E0
3.600769043E0,3.623886108E0,-8.696289062E-1,7.831359863E0,8.672888923E0
3.603240967E0,3.481140137E0,-8.334045410E-1,7.673690796E0,8.467492558E0
3.605712891E0,3.337326050E0,-8.163604736E-1,7.510711670E0,8.259236004E0
3.608215332E0,3.191390991E0,-8.227539062E-1,7.340270996E0,8.046208967E0
3.610687256E0,3.036926270E0,-8.568420410E-1,7.170883179E0,7.834453715E0
3.613189698E0,2.882461548E0,-9.218292236E-1,7.001510620E0,7.627549060E0
3.615661622E0,2.730133057E0,-1.008117676E0,6.833206177E0,7.427155203E0
3.618133545E0,2.585250854E0,-1.117843628E0,6.672348022E0,7.242466741E0
3.620635987E0,2.447830200E0,-1.236083984E0,6.512557983E0,7.066341896E0
3.623107911E0,2.311477661E0,-1.387344360E0,6.350631714E0,6.899143173E0
3.625579834E0,2.183654785E0,-1.581222534E0,6.192977905E0,6.754375490E0
3.628082276E0,2.076065063E0,-1.784698486E0,6.038513184E0,6.630146024E0
3.630554200E0,1.990844727E0,-1.964721680E0,5.896835327E0,6.526581102E0
3.633026124E0,1.915206909E0,-2.089355469E0,5.748764038E0,6.409501677E0
3.635528565E0,1.847030640E0,-2.167114258E0,5.587905884E0,6.271570661E0
3.638000489E0,1.803359985E0,-2.250213623E0,5.438766479E0,6.155952356E0
3.640502930E0,1.768203735E0,-2.359939575E0,5.290695190E0,6.057005436E0
3.642974854E0,1.738372803E0,-2.466461182E0,5.137298584E0,5.957953298E0
3.645446778E0,1.729843140E0,-2.531448364E0,4.981765747E0,5.849664782E0
3.647949219E0,1.734115601E0,-2.552749634E0,4.836898804E0,5.737532366E0
3.650421143E0,1.738372803E0,-2.569793701E0,4.697341919E0,5.629458302E0
3.652923584E0,1.744766235E0,-2.590026855E0,4.556732178E0,5.524152104E0
3.655395508E0,1.754348755E0,-2.600677490E0,4.409729004E0,5.411743975E0
3.657867432E0,1.773529053E0,-2.581512451E0,4.264846802E0,5.291363726E0
3.660369874E0,1.796966553E0,-2.546356201E0,4.125289917E0,5.170206533E0
3.662841797E0,1.810806274E0,-2.493087769E0,3.984680176E0,5.037080711E0
3.665313721E0,1.826782227E0,-2.429183960E0,3.845138550E0,4.901342518E0
3.667816163E0,1.834243774E0,-2.346084595E0,3.705581665E0,4.753935067E0
3.670288086E0,1.838500977E0,-2.247009277E0,3.566040039E0,4.598453881E0
3.672760010E0,1.839569092E0,-2.139419556E0,3.425415039E0,4.437859695E0
3.675262452E0,1.834243774E0,-2.024383545E0,3.281600952E0,4.269834162E0
3.677734375E0,1.822525024E0,-1.893356323E0,3.144195557E0,4.097848378E0
3.680236817E0,1.802291870E0,-1.743148804E0,3.008895874E0,3.916666710E0
3.682708741E0,1.779922485E0,-1.586547852E0,2.883193970E0,3.741398884E0
3.685180665E0,1.744766235E0,-1.426757812E0,2.762817383E0,3.565530390E0
3.687683106E0,1.701080322E0,-1.270172119E0,2.637115479E0,3.385467401E0
3.690155030E0,1.656341553E0,-1.119964600E0,2.516754150E0,3.214317890E0
3.692626954E0,1.608413696E0,-9.836120605E-1,2.412353516E0,3.061688552E0
3.695129395E0,1.548751831E0,-8.515167236E-1,2.316482544E0,2.913726882E0
3.697601319E0,1.481643677E0,-7.471313477E-1,2.215270996E0,2.767832875E0
3.700103760E0,1.408142090E0,-6.778869629E-1,2.109817505E0,2.625590369E0
3.702575684E0,1.333572388E0,-6.310119629E-1,2.003295898E0,2.487928027E0
3.705047608E0,1.260070801E0,-6.118316650E-1,1.906356812E0,2.365652701E0
3.707550049E0,1.178039551E0,-6.118316650E-1,1.803024292E0,2.238975607E0
3.710021973E0,1.096023560E0,-6.363372803E-1,1.706085205E0,2.125304567E0
3.712493897E0,1.016128540E0,-6.778869629E-1,1.607009888E0,2.018546191E0
3.714996338E0,9.351654053E-1,-7.300872803E-1,1.505813599E0,1.917038436E0
3.717468262E0,8.616638184E-1,-8.014526367E-1,1.411010742E0,1.837319292E0
3.719970704E0,7.817687988E-1,-8.866729736E-1,1.323654175E0,1.774658218E0
3.722442627E0,7.029418945E-1,-9.825439453E-1,1.236297607E0,1.728569260E0
3.724914551E0,6.230468750E-1,-1.089080811E0,1.151077271E0,1.702722321E0
3.727416993E0,5.420837402E-1,-1.199859619E0,1.072250366E0,1.698010228E0
3.729888916E0,4.621887207E-1,-1.306381226E0,9.966125488E-1,1.706893931E0
3.732391358E0,3.833618164E-1,-1.419311523E0,9.231109619E-1,1.735956604E0
3.734863282E0,3.077239990E-1,-1.537551880E0,8.517456055E-1,1.784441206E0
3.737335206E0,2.320861816E-1,-1.664321899E0,7.878265381E-1,1.855936969E0
3.739807129E0,1.596527100E-1,-1.790023804E0,7.207183838E-1,1.936261654E0
3.742309571E0,9.254455566E-2,-1.906127930E0,6.567993164E-1,2.018235249E0
3.744781495E0,2.542114258E-2,-2.024383545E0,5.939483643E-1,2.109869577E0
3.747283936E0,-3.848266602E-2,-2.151138306E0,5.310974121E-1,2.216064391E0
3.749755860E0,-9.600830078E-2,-2.287490845E0,4.618530273E-1,2.335624152E0
3.752227784E0,-1.535339355E-1,-2.428115845E0,3.958129883E-1,2.464951753E0
3.754730225E0,-2.142639160E-1,-2.576187134E0,3.265686035E-1,2.605627799E0
3.757202149E0,-2.717895508E-1,-2.723190308E0,2.530670166E-1,2.748395519E0
3.759674073E0,-3.197174072E-1,-2.865936279E0,1.870117188E-1,2.889772199E0
3.762176514E0,-3.740539551E-1,-3.010818481E0,1.220397949E-1,3.036418614E0
3.764648438E0,-4.230499268E-1,-3.145034790E0,6.024169922E-2,3.173931967E0
3.767150879E0,-4.763183594E-1,-3.257949829E0,5.920410156E-3,3.292590366E0
3.769622803E0,-5.253143311E-1,-3.354888916E0,-4.202270508E-2,3.396027193E0
3.772094727E0,-5.700531006E-1,-3.443313599E0,-8.355712891E-2,3.491181873E0
3.774597168E0,-6.169281006E-1,-3.515747070E0,-1.229705811E-1,3.571582213E0
3.777069092E0,-6.595458984E-1,-3.575393677E0,-1.560058594E-1,3.639062869E0
3.779541016E0,-7.042846680E-1,-3.619079590E0,-1.868896484E-1,3.691704445E0
3.782043457E0,-7.490234375E-1,-3.641448975E0,-2.092590332E-1,3.723570341E0
3.784515381E0,-7.926940918E-1,-3.642517090E0,-2.220458984E-1,3.734380679E0
3.787017823E0,-8.299865723E-1,-3.608428955E0,-2.188568115E-1,3.709115196E0
3.789489747E0,-8.598022461E-1,-3.542373657E0,-2.124633789E-1,3.651412291E0
3.791961670E0,-8.811187744E-1,-3.441177368E0,-2.103271484E-1,3.558413900E0
3.794464112E0,-9.066772461E-1,-3.298431396E0,-2.103271484E-1,3.427236615E0
3.796936036E0,-9.279785156E-1,-3.110946655E0,-2.092590332E-1,3.253140415E0
3.799407959E0,-9.450225830E-1,-2.890441895E0,-2.135314941E-1,3.048494338E0
3.801910401E0,-9.546203613E-1,-2.646484375E0,-2.241821289E-1,2.822310615E0
3.804382325E0,-9.546203613E-1,-2.396148682E0,-2.433471680E-1,2.590761738E0
3.806884766E0,-9.546203613E-1,-2.158599854E0,-2.603912354E-1,2.374585639E0
3.809356690E0,-9.514160156E-1,-1.972183228E0,-2.657165527E-1,2.205743504E0
3.811828614E0,-9.567413330E-1,-1.879501343E0,-2.721099854E-1,2.126481394E0
3.814331055E0,-9.748535156E-1,-1.846481323E0,-2.795715332E-1,2.106654432E0
3.816802979E0,-9.908294678E-1,-1.840087891E0,-2.902221680E-1,2.109951513E0
3.819305420E0,-9.918975830E-1,-1.844345093E0,-3.072662354E-1,2.116573215E0
3.821777344E0,-9.929656982E-1,-1.836883545E0,-3.275146484E-1,2.113619616E0
3.824249268E0,-9.972229004E-1,-1.841156006E0,-3.509368896E-1,2.123079285E0
3.826751709E0,-9.993591309E-1,-1.873107910E0,-3.796997070E-1,2.156715972E0
3.829223633E0,-1.003616333E0,-1.928497314E0,-4.095306396E-1,2.212252920E0
3.831695557E0,-1.016403198E0,-2.003067017E0,-4.532165527E-1,2.291453290E0
3.834197999E0,-1.024917603E0,-2.088287354E0,-4.915618896E-1,2.377610829E0
3.836669922E0,-1.038772583E0,-2.173507690E0,-5.267181396E-1,2.465890541E0
3.839141846E0,-1.055816650E0,-2.257675171E0,-5.629272461E-1,2.555138560E0
3.841644288E0,-1.071792603E0,-2.341827393E0,-5.991516113E-1,2.644215871E0
3.844116211E0,-1.087768555E0,-2.417465210E0,-6.428222656E-1,2.727746127E0
3.846618653E0,-1.110153198E0,-2.489898682E0,-6.865081787E-1,2.811286013E0
3.849090577E0,-1.130386353E0,-2.568725586E0,-7.280426025E-1,2.899339662E0
3.851562500E0,-1.157012939E0,-2.651809692E0,-7.695922852E-1,2.993834643E0
3.854064942E0,-1.182586670E0,-2.731704712E0,-8.090057373E-1,3.084673751E0
3.856536866E0,-1.206024170E0,-2.797760010E0,-8.494873047E-1,3.162844298E0
3.859008790E0,-1.230514526E0,-2.859542847E0,-8.857116699E-1,3.236608789E0
3.861511231E0,-1.253952026E0,-2.909606934E0,-9.176635742E-1,3.298532193E0
3.863983155E0,-1.281646729E0,-2.956481934E0,-9.464263916E-1,3.358441108E0
3.866455079E0,-1.309356689E0,-3.007614136E0,-9.794464111E-1,3.423371584E0
3.868957520E0,-1.332778931E0,-3.061950684E0,-1.006088257E0,3.487700567E0
3.871429444E0,-1.360488892E0,-3.113082886E0,-1.033782959E0,3.551186039E0
3.873931885E0,-1.388183594E0,-3.161010742E0,-1.057220459E0,3.610645053E0
3.876403809E0,-1.415878296E0,-3.207885742E0,-1.082778931E0,3.669830036E0
3.878875733E0,-1.440383911E0,-3.252624512E0,-1.106216431E0,3.725317009E0
3.881378174E0,-1.469146729E0,-3.293106079E0,-1.127517700E0,3.778125980E0
3.883850098E0,-1.497909546E0,-3.330383301E0,-1.146697998E0,3.827545197E0
3.886352540E0,-1.526657104E0,-3.369812012E0,-1.169067383E0,3.879823895E0
3.888824463E0,-1.555419922E0,-3.403900146E0,-1.189300537E0,3.926869378E0
3.891296387E0,-1.584182739E0,-3.436920166E0,-1.208480835E0,3.972717094E0
3.893798829E0,-1.610824585E0,-3.480590820E0,-1.225524902E0,4.026310915E0
3.896270752E0,-1.632125854E0,-3.531723022E0,-1.242568970E0,4.084223299E0
3.898742676E0,-1.657684326E0,-3.590316772E0,-1.256423950E0,4.149324402E0
3.901245118E0,-1.686447144E0,-3.649963379E0,-1.272399902E0,4.217266668E0
3.903717041E0,-1.712020874E0,-3.705368042E0,-1.277725220E0,4.277072543E0
3.906188965E0,-1.736526489E0,-3.752227783E0,-1.284118652E0,4.329399300E0
3.908691407E0,-1.764221191E0,-3.782058716E0,-1.291564941E0,4.368590681E0
3.911163331E0,-1.791915894E0,-3.800170898E0,-1.291564941E0,4.395497859E0
3.913665772E0,-1.818542480E0,-3.804428101E0,-1.289443970E0,4.409471133E0
3.916137696E0,-1.849441528E0,-3.793777466E0,-1.287307739E0,4.412521121E0
3.918609620E0,-1.880325317E0,-3.776733398E0,-1.285186768E0,4.410333716E0
3.921112061E0,-1.911224365E0,-3.759689331E0,-1.281982422E0,4.408119936E0
3.923583985E0,-1.939987183E0,-3.743713379E0,-1.294769287E0,4.410823918E0
3.926055909E0,-1.967681885E0,-3.723480225E0,-1.297958374E0,4.406900603E0
3.928558350E0,-1.992187500E0,-3.711761475E0,-1.296905518E0,4.407714623E0
3.931030274E0,-2.016693115E0,-3.704299927E0,-1.295837402E0,4.412265137E0
3.933532715E0,-2.041183472E0,-3.697906494E0,-1.299026489E0,4.419096313E0
3.936004639E0,-2.066757202E0,-3.690444946E0,-1.296905518E0,4.424119478E0
3.938476563E0,-2.086990356E0,-3.673400879E0,-1.288375854E0,4.416935035E0
3.940979004E0,-2.100845337E0,-3.646774292E0,-1.278793335E0,4.398616403E0
3.943450928E0,-2.118957520E0,-3.610549927E0,-1.263870239E0,4.373033241E0
3.945922852E0,-2.133865356E0,-3.555160522E0,-1.257476807E0,4.332873829E0
3.948425293E0,-2.143447876E0,-3.495513916E0,-1.240432739E0,4.283883719E0
3.950897217E0,-2.157302856E0,-3.441177368E0,-1.228729248E0,4.243280907E0
3.953399659E0,-2.174346924E0,-3.370864868E0,-1.226593018E0,4.194644793E0
3.955871582E0,-2.176467896E0,-3.285644531E0,-1.211685181E0,4.123184869E0
3.958343506E0,-2.177536011E0,-3.195098877E0,-1.196762085E0,4.047537449E0
3.960845948E0,-2.184997559E0,-3.089645386E0,-1.188247681E0,3.966365527E0
3.963317872E0,-2.184997559E0,-2.980987549E0,-1.187179565E0,3.881996447E0
3.965789795E0,-2.181808472E0,-2.872329712E0,-1.186111450E0,3.797028648E0
3.968292237E0,-2.179672241E0,-2.763671875E0,-1.181854248E0,3.712900857E0
3.970764161E0,-2.178604126E0,-2.673126221E0,-1.177581787E0,3.643983891E0
3.973236084E0,-2.179672241E0,-2.591094971E0,-1.172256470E0,3.583145191E0
3.975738526E0,-2.180740356E0,-2.508010864E0,-1.166931152E0,3.522424635E0
3.978210450E0,-2.178604126E0,-2.416397095E0,-1.156280518E0,3.452864824E0
3.980712891E0,-2.170089722E0,-2.321578979E0,-1.144561768E0,3.377727046E0
3.983184815E0,-2.159423828E0,-2.228912354E0,-1.134979248E0,3.304442380E0
3.985656739E0,-2.155166626E0,-2.147949219E0,-1.126449585E0,3.244582824E0
3.988159180E0,-2.153045654E0,-2.076568604E0,-1.112609863E0,3.191495490E0
3.990631104E0,-2.147720337E0,-2.009460449E0,-1.093429565E0,3.137869047E0
3.993103028E0,-2.140258789E0,-1.943420410E0,-1.075317383E0,3.084460739E0
3.995605469E0,-2.131729126E0,-1.878433228E0,-1.058273315E0,3.031950340E0
3.998077393E0,-2.123214722E0,-1.817718506E0,-1.033782959E0,2.980075255E0
4.000579834E0,-2.107238770E0,-1.755935669E0,-1.008209229E0,2.922370810E0
4.003051758E0,-2.095520020E0,-1.699478149E0,-9.879760742E-1,2.873243264E0
4.005523682E0,-2.079528809E0,-1.633422852E0,-9.666595459E-1,2.815482366E0
4.008026124E0,-2.063552856E0,-1.557785034E0,-9.389648438E-1,2.750745278E0
4.010498047E0,-2.042251587E0,-1.481094360E0,-9.134063721E-1,2.683047381E0
4.013000489E0,-2.025207520E0,-1.401199341E0,-8.857116699E-1,2.617118693E0
4.015472413E0,-2.004974365E0,-1.315979004E0,-8.558807373E-1,2.546419993E0
4.017944336E0,-1.983657837E0,-1.220108032E0,-8.345794678E-1,2.473880537E0
4.020446778E0,-1.961288452E0,-1.126358032E0,-8.100738525E-1,2.402405972E0
4.022918702E0,-1.929336548E0,-1.029418945E0,-7.791748047E-1,2.321455633E0
4.025390625E0,-1.893112183E0,-9.186248779E-1,-7.493591309E-1,2.233670636E0
4.027893067E0,-1.862228394E0,-7.961273193E-1,-7.152709961E-1,2.147865428E0
4.030364991E0,-1.827072144E0,-6.555175781E-1,-6.801147461E-1,2.056806257E0
4.032836915E0,-1.788726807E0,-5.074462891E-1,-6.470947266E-1,1.968699294E0
4.035339356E0,-1.752502441E0,-3.519134521E-1,-6.140594482E-1,1.890020341E0
4.037811280E0,-1.714157104E0,-1.825408936E-1,-5.863647461E-1,1.820845785E0
4.040313721E0,-1.674728394E0,6.866455078E-4,-5.533447266E-1,1.763776077E0
4.042785645E0,-1.634262085E0,1.945648193E-1,-5.267181396E-1,1.728033573E0
4.045257569E0,-1.601226807E0,3.948364258E-1,-5.096740723E-1,1.726149110E0
4.047760010E0,-1.567138672E0,5.908508301E-1,-4.904937744E-1,1.745168319E0
