"Time (s)","Gyroscope x (rad/s)","Gyroscope y (rad/s)","Gyroscope z (rad/s)"
0.000000000E0,-2.587890625E-2,-2.362213135E-1,1.133728027E-2
2.471924000E-3,-3.013610840E-2,-2.372894287E-1,1.666259766E-2
4.943848000E-3,-3.013610840E-2,-2.181091309E-1,9.201049805E-3
7.415771000E-3,-3.439331055E-2,-1.957397461E-1,7.080078125E-3
9.918213000E-3,-4.292297363E-2,-1.755065918E-1,7.080078125E-3
1.239013700E-2,-4.824829102E-2,-1.542053223E-1,7.080078125E-3
1.489257800E-2,-5.676269531E-2,-1.318359375E-1,4.943847656E-3
1.736450200E-2,-6.208801270E-2,-1.041259766E-1,3.875732422E-3
1.983642600E-2,-6.208801270E-2,-8.175659180E-2,-3.814697266E-4
2.230834900E-2,-6.848144531E-2,-5.194091797E-2,-3.570556641E-3
2.481079100E-2,-7.061767578E-2,-2.850341797E-2,-5.706787109E-3
2.728271500E-2,-7.168579102E-2,-3.997802734E-3,-6.774902344E-3
2.978515600E-2,-7.168579102E-2,2.157592773E-2,-1.103210449E-2
3.225708000E-2,-6.954956055E-2,4.499816895E-2,-1.103210449E-2
3.475952100E-2,-6.636047363E-2,6.524658203E-2,-1.635742188E-2
3.723144500E-2,-6.422424316E-2,7.908630371E-2,-1.635742188E-2
3.970336900E-2,-6.636047363E-2,8.761596680E-2,-1.528930664E-2
4.220581000E-2,-6.208801270E-2,9.614562988E-2,-1.528930664E-2
4.467773400E-2,-5.569458008E-2,1.025238037E-1,-1.742553711E-2
4.714965800E-2,-4.931640625E-2,1.014709473E-1,-1.742553711E-2
4.965209900E-2,-4.824829102E-2,9.719848633E-2,-1.423645020E-2
5.212402300E-2,-3.971862793E-2,9.187316895E-2,-1.103210449E-2
5.459594700E-2,-3.120422363E-2,8.761596680E-2,-8.895874023E-3
5.709838900E-2,-2.374267578E-2,7.376098633E-2,-9.963989258E-3
5.957031200E-2,-1.734924316E-2,5.992126465E-2,-3.570556641E-3
6.207275400E-2,-7.766723633E-3,4.713439941E-2,-3.814697266E-4
6.454467800E-2,3.952026367E-3,3.009033203E-2,-3.814697266E-4
6.701660100E-2,1.567077637E-2,1.304626465E-2,1.754760742E-3
6.951904300E-2,2.313232422E-2,-9.323120117E-3,2.822875977E-3
7.199096700E-2,3.271484375E-2,-2.850341797E-2,3.875732422E-3
7.449340800E-2,4.124450684E-2,-4.447937012E-2,7.080078125E-3
7.696533200E-2,4.975891113E-2,-6.471252441E-2,8.148193359E-3
7.943725600E-2,5.934143066E-2,-8.282470703E-2,8.148193359E-3
8.193969700E-2,6.254577637E-2,-9.135437012E-2,8.148193359E-3
8.441162100E-2,6.787109375E-2,-1.041259766E-1,6.011962891E-3
8.688354500E-2,6.999206543E-2,-1.115875244E-1,9.201049805E-3
8.938598600E-2,6.787109375E-2,-1.190490723E-1,8.148193359E-3
9.185791000E-2,7.212829590E-2,-1.222381592E-1,4.943847656E-3
9.436035100E-2,7.106018066E-2,-1.264953613E-1,4.943847656E-3
9.683227500E-2,6.999206543E-2,-1.264953613E-1,3.875732422E-3
9.930419900E-2,6.999206543E-2,-1.264953613E-1,2.822875977E-3
1.018066400E-1,6.573486328E-2,-1.243743896E-1,6.866455078E-4
1.042785640E-1,6.787109375E-2,-1.254425049E-1,2.822875977E-3
1.067504880E-1,6.254577637E-2,-1.201171875E-1,2.822875977E-3
1.092529300E-1,5.828857422E-2,-1.179809570E-1,1.754760742E-3
1.117248530E-1,6.040954590E-2,-1.137237549E-1,1.754760742E-3
1.142272950E-1,5.722045898E-2,-1.030731201E-1,6.866455078E-4
1.166992190E-1,6.040954590E-2,-9.880065918E-2,-3.570556641E-3
1.191711420E-1,5.615234375E-2,-9.135437012E-2,-1.449584961E-3
1.216735840E-1,5.828857422E-2,-7.536315918E-2,-1.449584961E-3
1.241455080E-1,6.040954590E-2,-6.364440918E-2,-5.706787109E-3
1.266174310E-1,5.828857422E-2,-5.726623535E-2,-6.774902344E-3
1.291198730E-1,6.040954590E-2,-4.766845703E-2,-9.963989258E-3
1.315917970E-1,5.722045898E-2,-3.382873535E-2,-9.963989258E-3
1.340637210E-1,5.722045898E-2,-2.104187012E-2,-1.210021973E-2
1.365661620E-1,5.615234375E-2,-1.039123535E-2,-1.423645020E-2
1.390380860E-1,5.722045898E-2,-3.997802734E-3,-1.956176758E-2
1.415405270E-1,5.615234375E-2,6.652832031E-3,-2.275085449E-2
1.440124510E-1,5.508422852E-2,1.411437988E-2,-2.593994141E-2
1.464843750E-1,5.294799805E-2,2.262878418E-2,-3.340148926E-2
1.489868160E-1,4.869079590E-2,3.329467773E-2,-3.660583496E-2
1.514587400E-1,4.762268066E-2,4.394531250E-2,-3.872680664E-2
1.539306640E-1,4.443359375E-2,5.352783203E-2,-4.298400879E-2
1.564331050E-1,4.336547852E-2,5.778503418E-2,-4.512023926E-2
1.589050290E-1,4.229736328E-2,6.738281250E-2,-4.832458496E-2
1.614074710E-1,4.229736328E-2,7.482910156E-2,-5.258178711E-2
1.638793940E-1,3.910827637E-2,7.803344727E-2,-5.577087402E-2
1.663513180E-1,3.910827637E-2,7.908630371E-2,-5.790710449E-2
1.688537600E-1,4.229736328E-2,8.229064941E-2,-6.109619141E-2
1.713256830E-1,4.017639160E-2,7.908630371E-2,-5.683898926E-2
1.737976070E-1,3.910827637E-2,7.908630371E-2,-5.897521973E-2
1.763000490E-1,3.910827637E-2,8.229064941E-2,-5.897521973E-2
1.787719730E-1,4.017639160E-2,7.803344727E-2,-6.002807617E-2
1.812744140E-1,4.124450684E-2,7.589721680E-2,-5.897521973E-2
1.837463380E-1,3.590393066E-2,7.376098633E-2,-5.683898926E-2
1.862182620E-1,3.485107422E-2,6.738281250E-2,-5.790710449E-2
1.887207030E-1,3.378295898E-2,6.950378418E-2,-5.790710449E-2
1.911926270E-1,3.590393066E-2,6.417846680E-2,-5.470275879E-2
1.936645510E-1,3.378295898E-2,5.778503418E-2,-5.897521973E-2
1.961669920E-1,3.271484375E-2,5.245971680E-2,-5.790710449E-2
1.986389160E-1,3.271484375E-2,4.713439941E-2,-5.364990234E-2
2.011413570E-1,3.590393066E-2,3.967285156E-2,-5.044555664E-2
2.036132810E-1,3.378295898E-2,3.329467773E-2,-4.937744141E-2
2.060852050E-1,3.271484375E-2,2.902221680E-2,-5.044555664E-2
2.085876460E-1,3.378295898E-2,2.262878418E-2,-4.725646973E-2
2.110595700E-1,3.378295898E-2,1.518249512E-2,-4.405212402E-2
2.135314940E-1,3.590393066E-2,9.857177734E-3,-4.298400879E-2
2.160339350E-1,3.697204590E-2,5.584716797E-3,-4.086303711E-2
2.185058590E-1,3.804016113E-2,2.395629883E-3,-3.979492188E-2
2.210083010E-1,3.910827637E-2,-5.065917969E-3,-4.086303711E-2
2.234802240E-1,3.485107422E-2,-1.358032227E-2,-3.765869141E-2
2.259521480E-1,3.057861328E-2,-1.890563965E-2,-3.446960449E-2
2.284545900E-1,3.057861328E-2,-2.104187012E-2,-3.660583496E-2
2.309265140E-1,2.738952637E-2,-2.104187012E-2,-3.553771973E-2
2.333984370E-1,2.206420898E-2,-2.636718750E-2,-3.233337402E-2
2.359008790E-1,1.780700684E-2,-2.636718750E-2,-3.128051758E-2
2.383728030E-1,1.141357422E-2,-2.317810059E-2,-3.128051758E-2
2.408752440E-1,7.629394531E-4,-2.423095703E-2,-3.233337402E-2
2.433471680E-1,-6.698608398E-3,-2.210998535E-2,-2.807617188E-2
2.458496090E-1,-9.902954102E-3,-1.678466797E-2,-2.914428711E-2
2.483215330E-1,-1.734924316E-2,-1.145935059E-2,-3.233337402E-2
2.507934570E-1,-2.799987793E-2,-1.039123535E-2,-2.700805664E-2
2.532653810E-1,-3.546142578E-2,-6.134033203E-3,-2.700805664E-2
2.557678220E-1,-3.971862793E-2,2.593994141E-4,-2.914428711E-2
2.582397460E-1,-5.036926270E-2,8.789062500E-3,-2.488708496E-2
2.607421870E-1,-5.676269531E-2,1.625061035E-2,-2.488708496E-2
2.632141110E-1,-5.996704102E-2,2.157592773E-2,-2.381896973E-2
2.656860350E-1,-6.208801270E-2,2.902221680E-2,-2.381896973E-2
2.681884760E-1,-6.422424316E-2,3.755187988E-2,-2.700805664E-2
2.706604000E-1,-6.741333008E-2,4.606628418E-2,-2.807617188E-2
2.731323240E-1,-7.168579102E-2,5.033874512E-2,-2.700805664E-2
2.756347650E-1,-7.594299316E-2,5.778503418E-2,-2.807617188E-2
2.781066890E-1,-7.807922363E-2,6.631469727E-2,-2.593994141E-2
2.806091310E-1,-8.126831055E-2,7.164001465E-2,-2.700805664E-2
2.830810550E-1,-8.659362793E-2,7.376098633E-2,-2.700805664E-2
2.855529780E-1,-8.552551270E-2,7.803344727E-2,-2.593994141E-2
2.880554200E-1,-8.766174316E-2,9.080505371E-2,-2.593994141E-2
2.905273440E-1,-8.872985840E-2,9.187316895E-2,-2.914428711E-2
2.929992670E-1,-8.872985840E-2,9.294128418E-2,-2.593994141E-2
2.955017090E-1,-9.298706055E-2,9.933471680E-2,-2.381896973E-2
2.979736330E-1,-8.766174316E-2,1.035919189E-1,-2.381896973E-2
3.004760740E-1,-8.766174316E-2,1.046600342E-1,-2.061462402E-2
3.029479980E-1,-8.659362793E-2,1.067962646E-1,-1.635742188E-2
3.054199220E-1,-8.552551270E-2,1.067962646E-1,-1.849365234E-2
3.079223630E-1,-8.872985840E-2,1.089172363E-1,-1.423645020E-2
3.103942870E-1,-9.085083008E-2,1.025238037E-1,-8.895874023E-3
3.128662110E-1,-8.978271484E-2,1.014709473E-1,-5.706787109E-3
3.153686520E-1,-8.978271484E-2,9.614562988E-2,-3.570556641E-3
3.178405760E-1,-9.085083008E-2,8.761596680E-2,-4.638671875E-3
3.203430170E-1,-9.085083008E-2,8.122253418E-2,-6.774902344E-3
3.228149410E-1,-9.405517578E-2,7.696533203E-2,1.754760742E-3
3.252868650E-1,-9.512329102E-2,6.843566895E-2,1.754760742E-3
3.277893060E-1,-9.512329102E-2,5.671691895E-2,6.011962891E-3
3.302612300E-1,-9.405517578E-2,4.499816895E-2,9.201049805E-3
3.327636720E-1,-9.831237793E-2,4.180908203E-2,7.080078125E-3
3.352355960E-1,-1.025695801E-1,3.541564941E-2,9.201049805E-3
3.377075190E-1,-1.047058105E-1,2.476501465E-2,1.133728027E-2
3.402099610E-1,-1.068420410E-1,1.943969727E-2,1.133728027E-2
3.426818850E-1,-1.121673584E-1,1.518249512E-2,7.080078125E-3
3.451538080E-1,-1.185455322E-1,1.197814941E-2,7.080078125E-3
3.476562500E-1,-1.249389648E-1,1.197814941E-2,7.080078125E-3
3.501281740E-1,-1.324005127E-1,1.304626465E-2,8.148193359E-3
3.526000980E-1,-1.377258301E-1,1.518249512E-2,8.148193359E-3
3.551025390E-1,-1.473083496E-1,1.730346680E-2,7.080078125E-3
3.575744630E-1,-1.547698975E-1,2.262878418E-2,4.943847656E-3
3.600769040E-1,-1.643524170E-1,2.476501465E-2,-1.449584961E-3
3.625488280E-1,-1.718139648E-1,2.690124512E-2,-3.814697266E-4
3.650207520E-1,-1.835327148E-1,3.329467773E-2,-3.570556641E-3
3.675231930E-1,-1.973876953E-1,3.755187988E-2,-8.895874023E-3
3.699951170E-1,-2.048339844E-1,4.713439941E-2,-7.843017578E-3
3.724670410E-1,-2.112274170E-1,6.524658203E-2,-1.103210449E-2
3.749694820E-1,-2.165527344E-1,7.803344727E-2,-1.316833496E-2
3.774414060E-1,-2.197570801E-1,8.975219727E-2,-1.316833496E-2
3.799438480E-1,-2.250823975E-1,1.057281494E-1,-1.635742188E-2
3.824157710E-1,-2.250823975E-1,1.195678711E-1,-1.316833496E-2
3.849182130E-1,-2.261505127E-1,1.355590820E-1,-1.528930664E-2
3.873901370E-1,-2.261505127E-1,1.430053711E-1,-1.635742188E-2
3.898620600E-1,-2.293395996E-1,1.472778320E-1,-1.849365234E-2
3.923339840E-1,-2.314758301E-1,1.611175537E-1,-2.488708496E-2
3.948364260E-1,-2.346649170E-1,1.707000732E-1,-2.593994141E-2
3.973083490E-1,-2.431945801E-1,1.728363037E-1,-3.128051758E-2
3.998107910E-1,-2.442474365E-1,1.770935059E-1,-3.446960449E-2
4.022827150E-1,-2.442474365E-1,1.770935059E-1,-4.086303711E-2
4.047546390E-1,-2.495727539E-1,1.792297363E-1,-4.937744141E-2
4.072570800E-1,-2.559661865E-1,1.792297363E-1,-5.577087402E-2
4.097290040E-1,-2.612915039E-1,1.802978516E-1,-6.109619141E-2
4.122009280E-1,-2.698211670E-1,1.834869385E-1,-7.281494141E-2
4.147033690E-1,-2.783355713E-1,1.802978516E-1,-7.707214355E-2
4.171752930E-1,-2.890014648E-1,1.760253906E-1,-8.560180664E-2
4.196777340E-1,-2.996520996E-1,1.781616211E-1,-9.411621094E-2
4.221496580E-1,-3.081665039E-1,1.728363037E-1,-1.005096436E-1
4.246215820E-1,-3.145599365E-1,1.781616211E-1,-1.122283936E-1
4.271240230E-1,-3.262786865E-1,1.781616211E-1,-1.228790283E-1
4.295959470E-1,-3.316040039E-1,1.781616211E-1,-1.282196045E-1
4.320678710E-1,-3.422546387E-1,1.834869385E-1,-1.431274414E-1
4.345703120E-1,-3.529052734E-1,1.930847168E-1,-1.516418457E-1
4.370422360E-1,-3.625030518E-1,2.005310059E-1,-1.580352783E-1
4.395446780E-1,-3.699493408E-1,2.111816406E-1,-1.686859131E-1
4.420166010E-1,-3.795471191E-1,2.197113037E-1,-1.740112305E-1
4.445190430E-1,-3.848724365E-1,2.303619385E-1,-1.793518066E-1
4.469909670E-1,-3.891296387E-1,2.399444580E-1,-1.900024414E-1
4.494628900E-1,-3.933868408E-1,2.452697754E-1,-1.995849609E-1
4.519653320E-1,-3.933868408E-1,2.505950928E-1,-2.059783936E-1
4.544372560E-1,-3.955230713E-1,2.548675537E-1,-2.113037109E-1
4.569091800E-1,-3.965911865E-1,2.548675537E-1,-2.198181152E-1
4.594116210E-1,-3.933868408E-1,2.516632080E-1,-2.240905762E-1
4.618835450E-1,-3.912658691E-1,2.516632080E-1,-2.272796631E-1
4.643554690E-1,-3.869934082E-1,2.495422363E-1,-2.326049805E-1
4.668579100E-1,-3.880615234E-1,2.474060059E-1,-2.368621826E-1
4.693298340E-1,-3.848724365E-1,2.399444580E-1,-2.432556152E-1
4.718017580E-1,-3.827362061E-1,2.378234863E-1,-2.422027588E-1
4.743041990E-1,-3.805999756E-1,2.324981689E-1,-2.443237305E-1
4.767761230E-1,-3.763427734E-1,2.303619385E-1,-2.485809326E-1
4.792785640E-1,-3.774108887E-1,2.229003906E-1,-2.443237305E-1
4.817504880E-1,-3.742218018E-1,2.218322754E-1,-2.475280762E-1
4.842224120E-1,-3.752746582E-1,2.197113037E-1,-2.549743652E-1
4.867248530E-1,-3.688964844E-1,2.154541016E-1,-2.539062500E-1
4.891967770E-1,-3.656921387E-1,2.122497559E-1,-2.517852783E-1
4.916992190E-1,-3.678283691E-1,2.101287842E-1,-2.507171631E-1
4.941711420E-1,-3.646240234E-1,2.005310059E-1,-2.517852783E-1
4.966430660E-1,-3.614349365E-1,1.962738037E-1,-2.507171631E-1
4.991455080E-1,-3.603668213E-1,1.941375732E-1,-2.507171631E-1
5.016174310E-1,-3.561096191E-1,1.962738037E-1,-2.485809326E-1
5.040893550E-1,-3.592987061E-1,1.909484863E-1,-2.496490479E-1
5.065917970E-1,-3.539733887E-1,1.877441406E-1,-2.464599609E-1
5.090637210E-1,-3.507843018E-1,1.856231689E-1,-2.453918457E-1
5.115661620E-1,-3.454589844E-1,1.920166016E-1,-2.453918457E-1
5.140380860E-1,-3.348083496E-1,1.920166016E-1,-2.389984131E-1
5.165100100E-1,-3.305358887E-1,1.877441406E-1,-2.389984131E-1
5.190124510E-1,-3.230895996E-1,1.909484863E-1,-2.326049805E-1
5.214843750E-1,-3.145599365E-1,1.909484863E-1,-2.283477783E-1
5.239562990E-1,-3.007202148E-1,1.877441406E-1,-2.240905762E-1
5.264587400E-1,-2.900543213E-1,1.802978516E-1,-2.198181152E-1
5.289306640E-1,-2.783355713E-1,1.760253906E-1,-2.176971436E-1
5.314331050E-1,-2.623596191E-1,1.696472168E-1,-2.155609131E-1
5.339050290E-1,-2.538452148E-1,1.568603516E-1,-2.113037109E-1
5.363769530E-1,-2.410583496E-1,1.462097168E-1,-2.049102783E-1
5.388793940E-1,-2.314758301E-1,1.334228516E-1,-1.974487305E-1
5.413513180E-1,-2.197570801E-1,1.206359863E-1,-1.900024414E-1
5.438232420E-1,-2.133636475E-1,1.089172363E-1,-1.814727783E-1
5.463256830E-1,-1.995086670E-1,9.080505371E-2,-1.740112305E-1
5.487976070E-1,-1.888580322E-1,7.908630371E-2,-1.665649414E-1
5.513000490E-1,-1.803436279E-1,6.417846680E-2,-1.612396240E-1
5.537719730E-1,-1.707458496E-1,4.927062988E-2,-1.527099609E-1
5.562438960E-1,-1.590270996E-1,3.222656250E-2,-1.420593262E-1
5.587463380E-1,-1.537017822E-1,1.837158203E-2,-1.324768066E-1
5.612182620E-1,-1.451873779E-1,2.395629883E-3,-1.239471436E-1
5.636901850E-1,-1.334686279E-1,-1.997375488E-2,-1.165008545E-1
5.661926270E-1,-1.238861084E-1,-3.489685059E-2,-1.079711914E-1
5.686645510E-1,-1.142883301E-1,-5.619812012E-2,-9.945678711E-2
5.711669920E-1,-1.036376953E-1,-7.643127441E-2,-9.306335449E-2
5.736389160E-1,-9.617614746E-2,-9.347534180E-2,-8.879089355E-2
5.761108400E-1,-8.552551270E-2,-1.137237549E-1,-8.453369141E-2
5.786132810E-1,-7.487487793E-2,-1.350250244E-1,-7.920837402E-2
5.810852050E-1,-6.636047363E-2,-1.552581787E-1,-7.495117188E-2
5.835571290E-1,-5.996704102E-2,-1.712493896E-1,-7.069396973E-2
5.860595700E-1,-5.783081055E-2,-1.925506592E-1,-6.642150879E-2
5.885314940E-1,-4.824829102E-2,-2.106628418E-1,-6.216430664E-2
5.910339350E-1,-4.292297363E-2,-2.298278809E-1,-5.790710449E-2
5.935058590E-1,-4.078674316E-2,-2.468719482E-1,-5.790710449E-2
5.959777830E-1,-3.759765625E-2,-2.585906982E-1,-5.364990234E-2
5.984802240E-1,-3.546142578E-2,-2.692413330E-1,-4.937744141E-2
6.009521480E-1,-3.652954102E-2,-2.788391113E-1,-4.405212402E-2
6.034240720E-1,-3.546142578E-2,-2.905578613E-1,-4.298400879E-2
6.059265140E-1,-3.439331055E-2,-2.937469482E-1,-4.193115234E-2
6.083984370E-1,-3.439331055E-2,-2.969512939E-1,-3.979492188E-2
6.109008790E-1,-3.332519531E-2,-2.990722656E-1,-4.086303711E-2
6.133728030E-1,-3.546142578E-2,-2.980041504E-1,-3.765869141E-2
6.158447260E-1,-4.078674316E-2,-2.990722656E-1,-3.446960449E-2
6.183471680E-1,-4.292297363E-2,-3.001403809E-1,-3.553771973E-2
6.208190920E-1,-4.292297363E-2,-2.916107178E-1,-3.660583496E-2
6.232910150E-1,-4.718017578E-2,-2.841644287E-1,-3.872680664E-2
6.257934570E-1,-4.931640625E-2,-2.767028809E-1,-3.765869141E-2
6.282653810E-1,-5.036926270E-2,-2.681884766E-1,-3.872680664E-2
6.307678220E-1,-5.036926270E-2,-2.521972656E-1,-3.765869141E-2
6.332397460E-1,-5.250549316E-2,-2.372894287E-1,-3.660583496E-2
6.357116700E-1,-5.569458008E-2,-2.245025635E-1,-4.298400879E-2
6.382141110E-1,-5.464172363E-2,-2.074584961E-1,-4.086303711E-2
6.406860350E-1,-5.464172363E-2,-1.882934570E-1,-4.193115234E-2
6.431579590E-1,-5.464172363E-2,-1.755065918E-1,-4.937744141E-2
6.456604000E-1,-5.464172363E-2,-1.584625244E-1,-5.258178711E-2
6.481323240E-1,-5.676269531E-2,-1.424865723E-1,-5.790710449E-2
6.506347650E-1,-5.250549316E-2,-1.211700439E-1,-6.109619141E-2
6.531066890E-1,-5.357360840E-2,-1.041259766E-1,-6.323242188E-2
6.555786130E-1,-4.931640625E-2,-8.496093750E-2,-6.748962402E-2
6.580810550E-1,-5.143737793E-2,-6.259155273E-2,-7.069396973E-2
6.605529780E-1,-4.824829102E-2,-4.234313965E-2,-7.920837402E-2
6.630249020E-1,-4.718017578E-2,-2.423095703E-2,-8.453369141E-2
6.655273440E-1,-4.504394531E-2,-5.065917969E-3,-8.773803711E-2
6.679992670E-1,-4.292297363E-2,1.518249512E-2,-9.732055664E-2
6.705017090E-1,-4.078674316E-2,3.009033203E-2,-9.945678711E-2
6.729736330E-1,-4.185485840E-2,4.499816895E-2,-1.047821045E-1
6.754455560E-1,-4.185485840E-2,5.992126465E-2,-1.101074219E-1
6.779479980E-1,-4.292297363E-2,7.270812988E-2,-1.132965088E-1
6.804199220E-1,-3.971862793E-2,8.229064941E-2,-1.186218262E-1
6.828918460E-1,-3.546142578E-2,9.294128418E-2,-1.239471436E-1
6.853942870E-1,-3.439331055E-2,9.719848633E-2,-1.250152588E-1
6.878662110E-1,-3.439331055E-2,1.025238037E-1,-1.282196045E-1
6.903686520E-1,-3.013610840E-2,1.046600342E-1,-1.292724609E-1
6.928405760E-1,-2.481079102E-2,1.089172363E-1,-1.292724609E-1
6.953125000E-1,-2.267456055E-2,1.014709473E-1,-1.367340088E-1
6.978149410E-1,-1.734924316E-2,9.614562988E-2,-1.378021240E-1
7.002868650E-1,-1.309204102E-2,8.975219727E-2,-1.388702393E-1
7.027893060E-1,-7.766723633E-3,7.696533203E-2,-1.378021240E-1
7.052612300E-1,7.629394531E-4,6.204223633E-2,-1.378021240E-1
7.077331540E-1,1.815795898E-3,4.606628418E-2,-1.367340088E-1
7.102355960E-1,1.141357422E-2,2.690124512E-2,-1.388702393E-1
7.127075190E-1,1.780700684E-2,1.304626465E-2,-1.367340088E-1
7.151794430E-1,1.992797852E-2,-6.134033203E-3,-1.345977783E-1
7.176818850E-1,2.738952637E-2,-2.317810059E-2,-1.292724609E-1
7.201538080E-1,3.697204590E-2,-4.127502441E-2,-1.260833740E-1
7.226257320E-1,4.017639160E-2,-5.938720703E-2,-1.250152588E-1
7.251281740E-1,4.550170898E-2,-7.431030273E-2,-1.228790283E-1
7.276000980E-1,4.762268066E-2,-8.815002441E-2,-1.186218262E-1
7.301025390E-1,5.189514160E-2,-9.986877441E-2,-1.132965088E-1
7.325744630E-1,5.508422852E-2,-1.094512939E-1,-1.090393066E-1
7.350463870E-1,5.722045898E-2,-1.190490723E-1,-1.005096436E-1
7.375488280E-1,6.040954590E-2,-1.318359375E-1,-9.732055664E-2
7.400207520E-1,6.466674805E-2,-1.456756592E-1,-9.092712402E-2
7.425231930E-1,6.361389160E-2,-1.552581787E-1,-8.773803711E-2
7.449951170E-1,6.680297852E-2,-1.605834961E-1,-8.134460449E-2
7.474670410E-1,6.573486328E-2,-1.691131592E-1,-7.495117188E-2
7.499694820E-1,6.147766113E-2,-1.765747070E-1,-7.174682617E-2
7.524414060E-1,6.254577637E-2,-1.840209961E-1,-6.748962402E-2
7.549133300E-1,6.040954590E-2,-1.861572266E-1,-6.002807617E-2
7.574157710E-1,6.040954590E-2,-1.925506592E-1,-5.683898926E-2
7.598876950E-1,5.828857422E-2,-1.968078613E-1,-4.832458496E-2
7.623596190E-1,5.615234375E-2,-1.989440918E-1,-4.086303711E-2
7.648620600E-1,5.189514160E-2,-2.010650635E-1,-3.553771973E-2
7.673339840E-1,5.508422852E-2,-2.074584961E-1,-3.233337402E-2
7.698364260E-1,5.828857422E-2,-2.000122070E-1,-2.593994141E-2
7.723083490E-1,5.934143066E-2,-2.021331787E-1,-2.061462402E-2
7.747802730E-1,6.040954590E-2,-2.021331787E-1,-1.316833496E-2
7.772827150E-1,6.147766113E-2,-1.989440918E-1,-1.103210449E-2
7.797546390E-1,6.040954590E-2,-1.936187744E-1,-7.843017578E-3
7.822265620E-1,6.254577637E-2,-1.914825439E-1,-3.570556641E-3
7.847290040E-1,6.147766113E-2,-1.819000244E-1,-2.517700195E-3
7.872009280E-1,6.254577637E-2,-1.808319092E-1,-1.449584961E-3
7.897033690E-1,6.466674805E-2,-1.797637939E-1,2.822875977E-3
7.921752930E-1,6.787109375E-2,-1.712493896E-1,1.754760742E-3
7.946472170E-1,6.999206543E-2,-1.627197266E-1,3.875732422E-3
7.971496580E-1,7.212829590E-2,-1.584625244E-1,2.822875977E-3
7.996215820E-1,7.319641113E-2,-1.542053223E-1,3.875732422E-3
8.021240230E-1,7.426452637E-2,-1.499328613E-1,8.148193359E-3
8.045959470E-1,7.533264160E-2,-1.456756592E-1,9.201049805E-3
8.070678710E-1,7.533264160E-2,-1.424865723E-1,9.201049805E-3
8.095703120E-1,7.638549805E-2,-1.435394287E-1,1.133728027E-2
8.120422360E-1,8.065795898E-2,-1.392822266E-1,1.026916504E-2
8.145141600E-1,8.065795898E-2,-1.382141113E-1,1.026916504E-2
8.170166010E-1,8.171081543E-2,-1.382141113E-1,9.201049805E-3
8.194885250E-1,8.171081543E-2,-1.360931396E-1,1.026916504E-2
8.219604490E-1,7.958984375E-2,-1.414184570E-1,1.026916504E-2
8.244628900E-1,7.852172852E-2,-1.424865723E-1,8.148193359E-3
8.269348140E-1,7.745361328E-2,-1.467437744E-1,9.201049805E-3
8.294372560E-1,7.958984375E-2,-1.531372070E-1,9.201049805E-3
8.319091800E-1,7.533264160E-2,-1.542053223E-1,8.148193359E-3
8.343811030E-1,7.426452637E-2,-1.563262939E-1,7.080078125E-3
8.368835450E-1,7.212829590E-2,-1.605834961E-1,6.011962891E-3
8.393554690E-1,6.787109375E-2,-1.637878418E-1,7.080078125E-3
8.418579100E-1,6.787109375E-2,-1.659240723E-1,6.011962891E-3
8.443298340E-1,6.573486328E-2,-1.723022461E-1,1.026916504E-2
8.468017580E-1,6.361389160E-2,-1.755065918E-1,1.347351074E-2
8.493041990E-1,6.254577637E-2,-1.808319092E-1,1.559448242E-2
8.517761230E-1,6.147766113E-2,-1.840209961E-1,1.986694336E-2
8.542480470E-1,6.254577637E-2,-1.850891113E-1,2.198791504E-2
8.567504880E-1,6.147766113E-2,-1.893463135E-1,2.624511719E-2
8.592224120E-1,6.040954590E-2,-1.914825439E-1,3.051757812E-2
8.617248530E-1,5.934143066E-2,-1.968078613E-1,3.370666504E-2
8.641967770E-1,5.508422852E-2,-2.010650635E-1,3.903198242E-2
8.666687010E-1,5.401611328E-2,-2.032012939E-1,4.435729980E-2
8.691711420E-1,5.401611328E-2,-2.053375244E-1,4.756164551E-2
8.716430660E-1,5.294799805E-2,-2.106628418E-1,4.968261719E-2
8.741149900E-1,5.401611328E-2,-2.181091309E-1,5.075073242E-2
8.766174310E-1,5.401611328E-2,-2.266387939E-1,5.288696289E-2
8.790893550E-1,5.189514160E-2,-2.330322266E-1,5.395507812E-2
8.815917970E-1,5.082702637E-2,-2.372894287E-1,5.607604980E-2
8.840637210E-1,4.869079590E-2,-2.436828613E-1,5.607604980E-2
8.865356440E-1,4.336547852E-2,-2.490081787E-1,5.821228027E-2
8.890380860E-1,4.124450684E-2,-2.521972656E-1,5.821228027E-2
8.915100100E-1,3.804016113E-2,-2.564697266E-1,5.928039551E-2
8.939819330E-1,3.804016113E-2,-2.607269287E-1,5.821228027E-2
8.964843750E-1,3.697204590E-2,-2.617950439E-1,5.607604980E-2
8.989562990E-1,3.590393066E-2,-2.596588135E-1,5.928039551E-2
9.014587400E-1,3.378295898E-2,-2.607269287E-1,6.033325195E-2
9.039306640E-1,3.697204590E-2,-2.554016113E-1,6.033325195E-2
9.064025880E-1,3.378295898E-2,-2.479400635E-1,5.821228027E-2
9.089050290E-1,3.804016113E-2,-2.458190918E-1,5.714416504E-2
9.113769530E-1,4.229736328E-2,-2.362213135E-1,5.500793457E-2
9.138488770E-1,4.124450684E-2,-2.266387939E-1,5.395507812E-2
9.163513180E-1,4.229736328E-2,-2.202453613E-1,5.075073242E-2
9.188232420E-1,4.550170898E-2,-2.095947266E-1,4.861450195E-2
9.213256830E-1,4.443359375E-2,-1.978759766E-1,4.328918457E-2
9.237976070E-1,4.550170898E-2,-1.872253418E-1,4.116821289E-2
9.262695310E-1,4.656982422E-2,-1.744384766E-1,3.477478027E-2
9.287719730E-1,5.082702637E-2,-1.637878418E-1,3.157043457E-2
9.312438960E-1,4.975891113E-2,-1.520690918E-1,2.944946289E-2
9.337158200E-1,5.082702637E-2,-1.424865723E-1,2.519226074E-2
9.362182620E-1,5.189514160E-2,-1.286315918E-1,2.091979980E-2
9.386901850E-1,5.401611328E-2,-1.158447266E-1,1.773071289E-2
9.411926270E-1,5.508422852E-2,-1.083984375E-1,1.879882812E-2
9.436645510E-1,5.828857422E-2,-1.030731201E-1,1.240539551E-2
9.461364740E-1,5.722045898E-2,-9.454345703E-2,1.240539551E-2
9.486389160E-1,5.828857422E-2,-9.135437012E-2,9.201049805E-3
9.511108400E-1,5.934143066E-2,-8.708190918E-2,3.875732422E-3
9.535827640E-1,5.934143066E-2,-8.282470703E-2,4.943847656E-3
9.560852050E-1,6.254577637E-2,-7.856750488E-2,-1.449584961E-3
9.585571290E-1,7.106018066E-2,-7.110595703E-2,-7.843017578E-3
9.610595700E-1,7.212829590E-2,-7.003784180E-2,-6.774902344E-3
9.635314940E-1,7.212829590E-2,-6.791687012E-2,-1.103210449E-2
9.660034180E-1,7.533264160E-2,-6.364440918E-2,-1.742553711E-2
9.685058590E-1,7.638549805E-2,-6.578063965E-2,-2.381896973E-2
9.709777830E-1,7.638549805E-2,-5.619812012E-2,-2.275085449E-2
9.734497070E-1,8.065795898E-2,-5.513000488E-2,-2.488708496E-2
9.759521480E-1,8.065795898E-2,-5.194091797E-2,-2.807617188E-2
9.784240720E-1,7.745361328E-2,-4.554748535E-2,-3.021240234E-2
9.809265140E-1,7.852172852E-2,-4.341125488E-2,-3.233337402E-2
9.833984370E-1,7.852172852E-2,-3.915405273E-2,-3.128051758E-2
9.858703610E-1,8.065795898E-2,-3.808593750E-2,-3.128051758E-2
9.883728030E-1,7.958984375E-2,-3.062438965E-2,-2.914428711E-2
9.908447260E-1,8.171081543E-2,-1.890563965E-2,-3.128051758E-2
9.933166500E-1,8.384704590E-2,-1.039123535E-2,-2.807617188E-2
9.958190920E-1,8.065795898E-2,-1.145935059E-2,-2.488708496E-2
9.982910150E-1,8.491516113E-2,-1.145935059E-2,-2.593994141E-2
1.000793457E0,8.491516113E-2,-1.464843750E-2,-2.593994141E-2
1.003265381E0,8.277893066E-2,-1.251220703E-2,-2.807617188E-2
1.005737305E0,8.598327637E-2,-1.678466797E-2,-2.381896973E-2
1.008239746E0,8.171081543E-2,-2.529907227E-2,-2.275085449E-2
1.010711670E0,8.171081543E-2,-3.382873535E-2,-2.488708496E-2
1.013183594E0,7.852172852E-2,-3.808593750E-2,-2.061462402E-2
1.015686035E0,7.638549805E-2,-4.873657227E-2,-1.316833496E-2
1.018157959E0,7.852172852E-2,-6.152343750E-2,-1.103210449E-2
1.020660400E0,7.533264160E-2,-6.471252441E-2,-6.774902344E-3
1.023132324E0,7.533264160E-2,-7.324218750E-2,-5.706787109E-3
1.025604248E0,7.426452637E-2,-8.602905273E-2,2.822875977E-3
1.028106689E0,6.893920898E-2,-9.773254395E-2,7.080078125E-3
1.030578613E0,6.999206543E-2,-1.051940918E-1,1.240539551E-2
1.033050537E0,6.999206543E-2,-1.179809570E-1,1.879882812E-2
1.035552978E0,7.212829590E-2,-1.328887939E-1,2.198791504E-2
1.038024902E0,6.999206543E-2,-1.446075439E-1,2.838134766E-2
1.040527344E0,6.466674805E-2,-1.552581787E-1,3.263854980E-2
1.042999267E0,6.254577637E-2,-1.637878418E-1,4.010009766E-2
1.045471191E0,6.254577637E-2,-1.680450439E-1,4.116821289E-2
1.047973633E0,6.466674805E-2,-1.786956787E-1,4.542541504E-2
1.050445556E0,6.573486328E-2,-1.893463135E-1,5.075073242E-2
1.052917480E0,6.787109375E-2,-2.021331787E-1,5.500793457E-2
1.055419922E0,6.893920898E-2,-2.170562744E-1,5.928039551E-2
1.057891846E0,7.106018066E-2,-2.213134766E-1,6.460571289E-2
1.060394287E0,6.787109375E-2,-2.266387939E-1,6.886291504E-2
1.062866211E0,6.787109375E-2,-2.341003418E-1,7.205200195E-2
1.065338135E0,6.893920898E-2,-2.447509766E-1,7.951354980E-2
1.067840576E0,6.999206543E-2,-2.564697266E-1,8.483886719E-2
1.070312500E0,6.999206543E-2,-2.585906982E-1,8.909606934E-2
1.072784424E0,6.999206543E-2,-2.660522461E-1,9.016418457E-2
1.075286865E0,7.319641113E-2,-2.681884766E-1,9.869384766E-2
1.077758789E0,7.745361328E-2,-2.681884766E-1,1.029510498E-1
1.080261230E0,7.852172852E-2,-2.724456787E-1,1.061401367E-1
1.082733154E0,7.958984375E-2,-2.841644287E-1,1.082763672E-1
1.085205078E0,7.852172852E-2,-2.862854004E-1,1.093444824E-1
1.087707519E0,7.958984375E-2,-2.926788330E-1,1.136016846E-1
1.090179443E0,8.171081543E-2,-2.969512939E-1,1.146697998E-1
1.092651367E0,8.171081543E-2,-2.969512939E-1,1.157379150E-1
1.095153808E0,8.171081543E-2,-2.969512939E-1,1.178588867E-1
1.097625732E0,8.598327637E-2,-2.980041504E-1,1.210632324E-1
1.100128174E0,8.810424805E-2,-2.980041504E-1,1.221313477E-1
1.102600098E0,9.024047852E-2,-2.926788330E-1,1.178588867E-1
1.105072021E0,9.449768066E-2,-2.916107178E-1,1.189270020E-1
1.107574463E0,9.342956543E-2,-2.873535156E-1,1.168060303E-1
1.110046387E0,9.130859375E-2,-2.799072266E-1,1.146697998E-1
1.112518310E0,9.342956543E-2,-2.788391113E-1,1.136016846E-1
1.115020752E0,9.556579590E-2,-2.745666504E-1,1.082763672E-1
1.117492676E0,9.342956543E-2,-2.660522461E-1,1.040191650E-1
1.119995117E0,9.449768066E-2,-2.532653809E-1,1.061401367E-1
1.122467041E0,9.342956543E-2,-2.468719482E-1,1.061401367E-1
1.124938965E0,9.024047852E-2,-2.394256592E-1,1.082763672E-1
1.127441406E0,9.130859375E-2,-2.234344482E-1,1.050872803E-1
1.129913330E0,9.237670898E-2,-2.032012939E-1,1.061401367E-1
1.132385254E0,8.598327637E-2,-1.765747070E-1,1.082763672E-1
1.134887695E0,8.384704590E-2,-1.467437744E-1,1.093444824E-1
1.137359619E0,8.917236328E-2,-1.115875244E-1,1.125335693E-1
1.139862060E0,9.024047852E-2,-6.791687012E-2,1.146697998E-1
1.142333984E0,9.556579590E-2,-3.489685059E-2,1.178588867E-1
1.144805908E0,9.770202637E-2,-2.317810059E-2,1.199951172E-1
1.147308349E0,9.342956543E-2,-1.039123535E-2,1.199951172E-1
1.149780273E0,9.556579590E-2,1.197814941E-2,1.221313477E-1
1.152252197E0,9.342956543E-2,3.115844727E-2,1.253204346E-1
1.154754639E0,8.917236328E-2,5.245971680E-2,1.274566650E-1
1.157226562E0,8.917236328E-2,6.738281250E-2,1.295776367E-1
1.159729004E0,8.384704590E-2,7.803344727E-2,1.317138672E-1
1.162200928E0,7.958984375E-2,8.975219727E-2,1.370391846E-1
1.164703369E0,7.958984375E-2,9.614562988E-2,1.412963867E-1
1.167175293E0,8.171081543E-2,9.614562988E-2,1.455535889E-1
1.169647217E0,7.852172852E-2,8.761596680E-2,1.487579346E-1
1.172149658E0,7.852172852E-2,7.270812988E-2,1.562194824E-1
1.174621582E0,7.533264160E-2,5.671691895E-2,1.636657715E-1
1.177093506E0,7.319641113E-2,2.902221680E-2,1.679382324E-1
1.179595947E0,6.893920898E-2,2.395629883E-3,1.711273193E-1
1.182067871E0,6.787109375E-2,-2.955627441E-2,1.721954346E-1
1.184570312E0,6.573486328E-2,-5.513000488E-2,1.721954346E-1
1.187042236E0,6.573486328E-2,-8.921813965E-2,1.721954346E-1
1.189514160E0,6.361389160E-2,-1.275634766E-1,1.732635498E-1
1.192016601E0,5.934143066E-2,-1.669769287E-1,1.721954346E-1
1.194488525E0,6.254577637E-2,-2.063903809E-1,1.700592041E-1
1.196960449E0,6.147766113E-2,-2.426147461E-1,1.668701172E-1
1.199462890E0,5.615234375E-2,-2.799072266E-1,1.668701172E-1
1.201934814E0,5.401611328E-2,-3.171844482E-1,1.615447998E-1
1.204406738E0,5.189514160E-2,-3.438110352E-1,1.625976562E-1
1.206909180E0,5.722045898E-2,-3.661804199E-1,1.615447998E-1
1.209381103E0,5.934143066E-2,-3.949432373E-1,1.625976562E-1
1.211883545E0,5.722045898E-2,-4.194488525E-1,1.625976562E-1
1.214355469E0,5.934143066E-2,-4.269104004E-1,1.658020020E-1
1.216827392E0,6.361389160E-2,-4.322357178E-1,1.647338867E-1
1.219329834E0,6.999206543E-2,-4.428863525E-1,1.668701172E-1
1.221801758E0,7.638549805E-2,-4.460754395E-1,1.689910889E-1
1.224304199E0,8.065795898E-2,-4.450225830E-1,1.721954346E-1
1.226776123E0,8.810424805E-2,-4.439544678E-1,1.711273193E-1
1.229248047E0,9.237670898E-2,-4.396972656E-1,1.785888672E-1
1.231750488E0,9.449768066E-2,-4.322357178E-1,1.785888672E-1
1.234222412E0,1.008911133E-1,-4.269104004E-1,1.764526367E-1
1.236694336E0,1.072845459E-1,-4.237060547E-1,1.849822998E-1
1.239196777E0,1.126098633E-1,-4.173126221E-1,1.881713867E-1
1.241668701E0,1.200714111E-1,-4.034729004E-1,1.892395020E-1
1.244171142E0,1.253967285E-1,-3.960113525E-1,1.881713867E-1
1.246643066E0,1.275177002E-1,-3.928222656E-1,1.998901367E-1
1.249114990E0,1.275177002E-1,-3.693847656E-1,2.062835693E-1
1.251617431E0,1.392364502E-1,-3.203735352E-1,2.052154541E-1
1.254089355E0,1.466979980E-1,-2.937469482E-1,2.084045410E-1
1.256561279E0,1.562805176E-1,-2.916107178E-1,2.126770020E-1
1.259063721E0,1.637420654E-1,-2.852325439E-1,2.147979736E-1
1.261535644E0,1.669311523E-1,-2.628631592E-1,2.116088867E-1
1.264007568E0,1.701354980E-1,-2.415466309E-1,2.084045410E-1
1.266510010E0,1.690673828E-1,-2.362213135E-1,2.052154541E-1
1.268981933E0,1.658782959E-1,-2.383575439E-1,1.998901367E-1
1.271484375E0,1.648101807E-1,-2.245025635E-1,1.924285889E-1
1.273956299E0,1.594848633E-1,-2.053375244E-1,1.839141846E-1
1.276428223E0,1.594848633E-1,-1.968078613E-1,1.775207520E-1
1.278930664E0,1.520233154E-1,-1.978759766E-1,1.700592041E-1
1.281402588E0,1.456298828E-1,-1.882934570E-1,1.625976562E-1
1.283874512E0,1.381835938E-1,-1.755065918E-1,1.508941650E-1
1.286376953E0,1.275177002E-1,-1.648559570E-1,1.466217041E-1
1.288848877E0,1.211395264E-1,-1.531372070E-1,1.391754150E-1
1.291351318E0,1.115417480E-1,-1.371612549E-1,1.306457520E-1
1.293823242E0,9.982299805E-2,-1.190490723E-1,1.231842041E-1
1.296295166E0,8.917236328E-2,-1.126556396E-1,1.136016846E-1
1.298797607E0,8.065795898E-2,-9.454345703E-2,1.082763672E-1
1.301269531E0,6.999206543E-2,-7.110595703E-2,9.976196289E-2
1.303741455E0,5.934143066E-2,-6.578063965E-2,9.123229980E-2
1.306243896E0,4.443359375E-2,-6.045532227E-2,8.909606934E-2
1.308715820E0,3.271484375E-2,-4.660034180E-2,8.058166504E-2
1.311218262E0,2.632141113E-2,-2.955627441E-2,6.993103027E-2
1.313690185E0,1.673889160E-2,-3.276062012E-2,5.821228027E-2
1.316162109E0,2.883911133E-3,-4.447937012E-2,5.181884766E-2
1.318664551E0,-1.095581055E-2,-5.087280273E-2,4.861450195E-2
1.321136474E0,-2.267456055E-2,-3.594970703E-2,4.542541504E-2
1.323608398E0,-2.799987793E-2,-1.890563965E-2,4.223632812E-2
1.326110840E0,-3.652954102E-2,-2.850341797E-2,3.157043457E-2
1.328582764E0,-4.611206055E-2,-5.087280273E-2,3.157043457E-2
1.331085205E0,-5.250549316E-2,-6.578063965E-2,3.157043457E-2
1.333557129E0,-6.529235840E-2,-7.003784180E-2,3.157043457E-2
1.336029053E0,-7.273864746E-2,-6.898498535E-2,2.944946289E-2
1.338531494E0,-7.487487793E-2,-7.643127441E-2,2.944946289E-2
1.341003418E0,-8.552551270E-2,-9.880065918E-2,3.157043457E-2
1.343475342E0,-8.659362793E-2,-1.179809570E-1,3.051757812E-2
1.345977783E0,-8.978271484E-2,-1.371612549E-1,2.624511719E-2
1.348449707E0,-9.512329102E-2,-1.446075439E-1,2.519226074E-2
1.350952148E0,-9.938049316E-2,-1.680450439E-1,2.624511719E-2
1.353424072E0,-1.015014648E-1,-1.882934570E-1,2.198791504E-2
1.355895996E0,-1.068420410E-1,-2.063903809E-1,1.986694336E-2
1.358398437E0,-1.100311279E-1,-2.202453613E-1,1.452636719E-2
1.360870361E0,-1.121673584E-1,-2.351531982E-1,1.026916504E-2
1.363342285E0,-1.121673584E-1,-2.521972656E-1,1.240539551E-2
1.365844726E0,-1.142883301E-1,-2.681884766E-1,1.026916504E-2
1.368316650E0,-1.132202148E-1,-2.745666504E-1,7.080078125E-3
1.370819092E0,-1.110992432E-1,-2.788391113E-1,8.148193359E-3
1.373291015E0,-1.100311279E-1,-2.852325439E-1,7.080078125E-3
1.375762939E0,-1.068420410E-1,-2.884216309E-1,6.011962891E-3
1.378265381E0,-1.036376953E-1,-2.809600830E-1,6.011962891E-3
1.380737305E0,-1.004486084E-1,-2.788391113E-1,6.011962891E-3
1.383209228E0,-9.724426270E-2,-2.756347656E-1,2.822875977E-3
1.385711670E0,-9.405517578E-2,-2.724456787E-1,1.754760742E-3
1.388183594E0,-8.872985840E-2,-2.671203613E-1,6.866455078E-4
1.390686035E0,-8.978271484E-2,-2.617950439E-1,6.866455078E-4
1.393157959E0,-8.552551270E-2,-2.521972656E-1,-3.814697266E-4
1.395629883E0,-7.807922363E-2,-2.468719482E-1,-4.638671875E-3
1.398132324E0,-7.594299316E-2,-2.458190918E-1,6.866455078E-4
1.400604248E0,-7.273864746E-2,-2.426147461E-1,-2.517700195E-3
1.403106689E0,-6.848144531E-2,-2.351531982E-1,-7.843017578E-3
1.405578613E0,-6.422424316E-2,-2.287750244E-1,-8.895874023E-3
1.408050537E0,-5.783081055E-2,-2.234344482E-1,-1.103210449E-2
1.410552978E0,-5.569458008E-2,-2.170562744E-1,-1.635742188E-2
1.413024902E0,-5.036926270E-2,-2.117309570E-1,-2.061462402E-2
1.415496826E0,-4.611206055E-2,-2.032012939E-1,-2.914428711E-2
1.417999267E0,-4.292297363E-2,-1.946716309E-1,-3.553771973E-2
1.420471191E0,-4.399108887E-2,-1.861572266E-1,-4.193115234E-2
1.422943115E0,-3.971862793E-2,-1.786956787E-1,-4.832458496E-2
1.425445556E0,-3.971862793E-2,-1.701812744E-1,-5.470275879E-2
1.427917480E0,-3.759765625E-2,-1.605834961E-1,-5.897521973E-2
1.430419922E0,-3.865051270E-2,-1.520690918E-1,-6.536865234E-2
1.432891846E0,-4.078674316E-2,-1.435394287E-1,-7.281494141E-2
1.435363769E0,-3.865051270E-2,-1.339569092E-1,-7.920837402E-2
1.437866211E0,-4.078674316E-2,-1.254425049E-1,-8.453369141E-2
1.440338135E0,-3.759765625E-2,-1.190490723E-1,-8.985900879E-2
1.442810058E0,-3.865051270E-2,-1.083984375E-1,-9.306335449E-2
1.445312500E0,-3.971862793E-2,-9.880065918E-2,-9.625244141E-2
1.447784424E0,-3.759765625E-2,-9.240722656E-2,-9.732055664E-2
1.450286865E0,-3.546142578E-2,-7.856750488E-2,-1.015777588E-1
1.452758789E0,-3.865051270E-2,-7.643127441E-2,-1.058349609E-1
1.455230713E0,-3.759765625E-2,-6.791687012E-2,-1.047821045E-1
1.457733154E0,-3.439331055E-2,-6.152343750E-2,-1.047821045E-1
1.460205078E0,-3.546142578E-2,-5.299377441E-2,-1.069030762E-1
1.462677002E0,-3.332519531E-2,-5.299377441E-2,-1.058349609E-1
1.465179443E0,-3.013610840E-2,-4.660034180E-2,-1.047821045E-1
1.467651367E0,-3.227233887E-2,-3.701782227E-2,-1.037139893E-1
1.470153808E0,-3.013610840E-2,-3.062438965E-2,-9.625244141E-2
1.472625732E0,-2.906799316E-2,-2.955627441E-2,-9.518432617E-2
1.475097656E0,-2.481079102E-2,-2.955627441E-2,-8.985900879E-2
1.477600098E0,-2.374267578E-2,-2.743530273E-2,-8.879089355E-2
1.480072021E0,-2.481079102E-2,-2.955627441E-2,-8.666992188E-2
1.482543945E0,-2.374267578E-2,-3.489685059E-2,-8.346557617E-2
1.485046387E0,-2.374267578E-2,-4.022216797E-2,-8.027648926E-2
1.487518310E0,-2.374267578E-2,-4.873657227E-2,-7.388305664E-2
1.490020752E0,-1.948547363E-2,-5.406188965E-2,-7.069396973E-2
1.492492676E0,-1.948547363E-2,-6.045532227E-2,-6.855773926E-2
1.494964599E0,-1.841735840E-2,-7.003784180E-2,-6.216430664E-2
1.497467041E0,-1.841735840E-2,-7.856750488E-2,-5.577087402E-2
1.499938965E0,-1.522827148E-2,-9.028625488E-2,-4.937744141E-2
1.502410889E0,-1.309204102E-2,-1.020050049E-1,-4.193115234E-2
1.504913330E0,-1.202392578E-2,-1.094512939E-1,-3.872680664E-2
1.507385254E0,-5.630493164E-3,-1.211700439E-1,-2.914428711E-2
1.509887695E0,-3.509521484E-3,-1.307678223E-1,-1.849365234E-2
1.512359619E0,-4.562377930E-3,-1.435394287E-1,-1.210021973E-2
1.514831543E0,-3.051757812E-4,-1.563262939E-1,-4.638671875E-3
1.517333984E0,1.815795898E-3,-1.691131592E-1,2.822875977E-3
1.519805908E0,7.629394531E-4,-1.819000244E-1,1.026916504E-2
1.522277832E0,1.815795898E-3,-1.957397461E-1,1.879882812E-2
1.524780273E0,3.952026367E-3,-2.106628418E-1,2.838134766E-2
1.527252197E0,7.156372070E-3,-2.245025635E-1,3.691101074E-2
1.529754639E0,1.141357422E-2,-2.372894287E-1,4.328918457E-2
1.532226562E0,8.209228516E-3,-2.521972656E-1,5.288696289E-2
1.534698486E0,1.141357422E-2,-2.649841309E-1,6.246948242E-2
1.537200928E0,1.353454590E-2,-2.788391113E-1,6.993103027E-2
1.539672851E0,1.034545898E-2,-3.001403809E-1,7.418823242E-2
1.542175293E0,1.567077637E-2,-3.107910156E-1,7.844543457E-2
1.544647217E0,1.353454590E-2,-3.182525635E-1,8.590698242E-2
1.547119140E0,1.885986328E-2,-3.342285156E-1,9.016418457E-2
1.549621582E0,2.525329590E-2,-3.544616699E-1,9.016418457E-2
1.552093506E0,2.632141113E-2,-3.704528809E-1,9.869384766E-2
1.554565430E0,2.420043945E-2,-3.832244873E-1,9.976196289E-2
1.557067871E0,2.525329590E-2,-3.917541504E-1,1.029510498E-1
1.559539795E0,2.738952637E-2,-4.045410156E-1,1.061401367E-1
1.562011719E0,2.099609375E-2,-4.013366699E-1,1.136016846E-1
1.564514160E0,2.099609375E-2,-3.704528809E-1,1.274566650E-1
1.566986084E0,2.845764160E-2,-3.257141113E-1,1.338500977E-1
1.569488525E0,3.804016113E-2,-3.001403809E-1,1.423645020E-1
1.571960449E0,4.124450684E-2,-2.958831787E-1,1.508941650E-1
1.574432373E0,4.550170898E-2,-2.894897461E-1,1.604766846E-1
1.576934814E0,5.615234375E-2,-2.649841309E-1,1.647338867E-1
1.579406738E0,5.722045898E-2,-2.564697266E-1,1.636657715E-1
1.581909180E0,5.828857422E-2,-2.649841309E-1,1.636657715E-1
1.584381103E0,6.254577637E-2,-2.735137939E-1,1.636657715E-1
1.586853027E0,6.147766113E-2,-2.639160156E-1,1.615447998E-1
1.589355469E0,6.147766113E-2,-2.607269287E-1,1.594085693E-1
1.591827392E0,6.040954590E-2,-2.649841309E-1,1.604766846E-1
1.594299316E0,6.147766113E-2,-2.671203613E-1,1.604766846E-1
1.596801758E0,6.040954590E-2,-2.671203613E-1,1.583404541E-1
1.599273681E0,5.828857422E-2,-2.564697266E-1,1.594085693E-1
1.601776123E0,5.722045898E-2,-2.468719482E-1,1.572723389E-1
1.604248047E0,5.828857422E-2,-2.468719482E-1,1.562194824E-1
1.606719971E0,5.401611328E-2,-2.468719482E-1,1.625976562E-1
1.609222412E0,5.082702637E-2,-2.308959961E-1,1.604766846E-1
1.611694336E0,5.294799805E-2,-2.170562744E-1,1.562194824E-1
1.614166260E0,4.975891113E-2,-2.234344482E-1,1.530151367E-1
1.616668701E0,4.443359375E-2,-2.245025635E-1,1.519470215E-1
1.619140625E0,5.294799805E-2,-2.127838135E-1,1.498260498E-1
1.621643066E0,5.508422852E-2,-1.989440918E-1,1.466217041E-1
1.624114990E0,5.401611328E-2,-2.181091309E-1,1.434326172E-1
1.626586914E0,5.508422852E-2,-2.287750244E-1,1.423645020E-1
1.629089355E0,6.361389160E-2,-2.138519287E-1,1.423645020E-1
1.631561279E0,6.573486328E-2,-2.053375244E-1,1.381072998E-1
1.634033203E0,6.999206543E-2,-2.170562744E-1,1.349029541E-1
1.636535644E0,6.680297852E-2,-2.415466309E-1,1.381072998E-1
1.639007568E0,6.254577637E-2,-2.394256592E-1,1.359710693E-1
1.641510010E0,6.999206543E-2,-2.149200439E-1,1.306457520E-1
1.643981933E0,6.787109375E-2,-2.149200439E-1,1.317138672E-1
1.646453857E0,6.147766113E-2,-2.404785156E-1,1.349029541E-1
1.648956299E0,5.508422852E-2,-2.479400635E-1,1.370391846E-1
1.651428223E0,5.722045898E-2,-2.181091309E-1,1.370391846E-1
1.653900146E0,5.615234375E-2,-2.159881592E-1,1.370391846E-1
1.656402588E0,5.401611328E-2,-2.394256592E-1,1.402282715E-1
1.658874512E0,4.975891113E-2,-2.447509766E-1,1.508941650E-1
1.661376953E0,5.189514160E-2,-2.277069092E-1,1.572723389E-1
1.663848877E0,5.082702637E-2,-2.191772461E-1,1.615447998E-1
1.666320801E0,5.294799805E-2,-2.330322266E-1,1.658020020E-1
1.668823242E0,5.615234375E-2,-2.426147461E-1,1.732635498E-1
1.671295166E0,5.189514160E-2,-2.330322266E-1,1.817779541E-1
1.673767090E0,5.508422852E-2,-2.245025635E-1,1.860351562E-1
1.676269531E0,5.722045898E-2,-2.362213135E-1,1.903076172E-1
1.678741455E0,5.722045898E-2,-2.458190918E-1,1.998901367E-1
1.681243896E0,5.508422852E-2,-2.415466309E-1,2.084045410E-1
1.683715820E0,5.934143066E-2,-2.330322266E-1,2.137451172E-1
1.686187744E0,5.934143066E-2,-2.404785156E-1,2.254486084E-1
1.688690185E0,5.934143066E-2,-2.458190918E-1,2.382354736E-1
1.691162109E0,6.361389160E-2,-2.426147461E-1,2.446289062E-1
1.693634033E0,6.254577637E-2,-2.351531982E-1,2.552795410E-1
1.696136474E0,6.254577637E-2,-2.362213135E-1,2.659301758E-1
1.698608398E0,5.934143066E-2,-2.404785156E-1,2.765808105E-1
1.701110840E0,6.254577637E-2,-2.383575439E-1,2.851104736E-1
1.703582764E0,6.893920898E-2,-2.341003418E-1,2.925720215E-1
1.706054687E0,6.893920898E-2,-2.362213135E-1,3.032226562E-1
1.708557129E0,6.787109375E-2,-2.415466309E-1,3.117370605E-1
1.711029053E0,7.426452637E-2,-2.404785156E-1,3.191986084E-1
1.713500976E0,7.852172852E-2,-2.372894287E-1,3.277282715E-1
1.716003418E0,8.171081543E-2,-2.383575439E-1,3.330535889E-1
1.718475342E0,8.065795898E-2,-2.362213135E-1,3.426361084E-1
1.720977783E0,8.065795898E-2,-2.404785156E-1,3.522186279E-1
1.723449707E0,7.533264160E-2,-2.426147461E-1,3.564758301E-1
1.725921631E0,7.319641113E-2,-2.458190918E-1,3.628692627E-1
1.728424072E0,7.533264160E-2,-2.426147461E-1,3.681945801E-1
1.730895996E0,7.745361328E-2,-2.468719482E-1,3.735198975E-1
1.733367920E0,7.533264160E-2,-2.532653809E-1,3.788604736E-1
1.735870361E0,7.638549805E-2,-2.554016113E-1,3.809814453E-1
1.738342285E0,7.745361328E-2,-2.649841309E-1,3.831176758E-1
1.740844726E0,7.426452637E-2,-2.799072266E-1,3.852386475E-1
1.743316650E0,7.745361328E-2,-3.012084961E-1,3.884429932E-1
1.745788574E0,7.745361328E-2,-3.257141113E-1,3.863067627E-1
1.748291015E0,7.426452637E-2,-3.565979004E-1,3.895111084E-1
1.750762939E0,7.319641113E-2,-3.938903809E-1,3.916320801E-1
1.753265381E0,6.893920898E-2,-4.226531982E-1,3.905639648E-1
1.755737305E0,6.254577637E-2,-4.471435547E-1,3.905639648E-1
1.758209228E0,5.615234375E-2,-4.673919678E-1,3.916320801E-1
1.760711670E0,4.975891113E-2,-4.833679199E-1,3.916320801E-1
1.763183594E0,4.656982422E-2,-4.865570068E-1,3.927001953E-1
1.765655517E0,4.336547852E-2,-4.854888916E-1,3.980255127E-1
1.768157959E0,4.336547852E-2,-4.897613525E-1,4.076232910E-1
1.770629883E0,4.656982422E-2,-4.886932373E-1,4.172058105E-1
1.773101806E0,4.762268066E-2,-4.716491699E-1,4.267883301E-1
1.775604248E0,5.189514160E-2,-4.556732178E-1,4.395751953E-1
1.778076172E0,5.615234375E-2,-4.418182373E-1,4.491577148E-1
1.780578613E0,5.828857422E-2,-4.237060547E-1,4.608764648E-1
1.783050537E0,6.466674805E-2,-4.087982178E-1,4.757995605E-1
1.785522461E0,6.893920898E-2,-3.885498047E-1,4.907073975E-1
1.788024902E0,7.745361328E-2,-3.629913330E-1,5.034942627E-1
1.790496826E0,8.598327637E-2,-3.374176025E-1,5.141448975E-1
1.792999267E0,9.449768066E-2,-3.107910156E-1,5.279846191E-1
1.795471191E0,1.019592285E-1,-2.713775635E-1,5.439758301E-1
1.797943115E0,1.126098633E-1,-2.234344482E-1,5.620727539E-1
1.800445556E0,1.211395264E-1,-1.744384766E-1,5.780639648E-1
1.802917480E0,1.307220459E-1,-1.211700439E-1,5.940399170E-1
1.805389404E0,1.413726807E-1,-5.831909180E-2,6.057586670E-1
1.807891846E0,1.509552002E-1,2.593994141E-4,6.195983887E-1
1.810363769E0,1.605529785E-1,5.778503418E-2,6.323852539E-1
1.812835693E0,1.669311523E-1,1.110534668E-1,6.441040039E-1
1.815338135E0,1.754608154E-1,1.600494385E-1,6.472930908E-1
1.817810058E0,1.829223633E-1,2.047882080E-1,6.547546387E-1
1.820312500E0,1.893157959E-1,2.452697754E-1,6.568908691E-1
1.822784424E0,1.967620850E-1,2.761688232E-1,6.590118408E-1
1.825256348E0,2.052917480E-1,3.017272949E-1,6.579589844E-1
1.827758789E0,2.106170654E-1,3.251647949E-1,6.526336670E-1
1.830230713E0,2.116851807E-1,3.549957275E-1,6.451721191E-1
1.832702637E0,2.074127197E-1,3.890838623E-1,6.249237061E-1
1.835205078E0,1.967620850E-1,4.380950928E-1,6.174774170E-1
1.837677002E0,2.265930176E-1,4.892272949E-1,6.217346191E-1
1.840179443E0,2.340545654E-1,4.466094971E-1,6.217346191E-1
1.842651367E0,2.596130371E-1,2.910766602E-1,6.121520996E-1
1.845123291E0,2.862548828E-1,1.866912842E-1,5.791168213E-1
1.847625732E0,2.937011719E-1,2.058563232E-1,5.673980713E-1
1.850097656E0,2.979736328E-1,1.888122559E-1,5.599517822E-1
1.852569580E0,3.011627197E-1,7.270812988E-2,5.599517822E-1
1.855072021E0,3.032989502E-1,-3.382873535E-2,5.642089844E-1
1.857543945E0,3.064880371E-1,-4.766845703E-2,5.599517822E-1
1.860046387E0,3.096771240E-1,-4.447937012E-2,5.546264648E-1
1.862518310E0,3.192749023E-1,-1.073303223E-1,5.514221191E-1
1.864990234E0,2.926330566E-1,-1.733703613E-1,5.375823975E-1
1.867492676E0,2.947692871E-1,-1.850891113E-1,5.237274170E-1
1.869964599E0,3.246002197E-1,-1.861572266E-1,4.981689453E-1
1.872467041E0,2.937011719E-1,-1.840209961E-1,4.875030518E-1
1.874938965E0,2.425689697E-1,-1.659240723E-1,5.077514648E-1
1.877410889E0,2.372436523E-1,-1.819000244E-1,5.141448975E-1
1.879913330E0,2.521667480E-1,-2.341003418E-1,5.066833496E-1
1.882385254E0,2.532196045E-1,-2.639160156E-1,4.917755127E-1
1.884857178E0,2.500305176E-1,-2.745666504E-1,4.800567627E-1
1.887359619E0,2.436370850E-1,-2.969512939E-1,4.640808105E-1
1.889831543E0,2.329864502E-1,-3.523406982E-1,4.480895996E-1
1.892333984E0,2.170104980E-1,-4.087982178E-1,4.342498779E-1
1.894805908E0,2.020874023E-1,-4.300994873E-1,4.129486084E-1
1.897277832E0,1.903686523E-1,-4.269104004E-1,3.852386475E-1
1.899780273E0,1.743927002E-1,-4.226531982E-1,3.650054932E-1
1.902252197E0,1.669311523E-1,-4.311676025E-1,3.500976562E-1
1.904724121E0,1.552276611E-1,-4.226531982E-1,3.298492432E-1
1.907226562E0,1.328430176E-1,-3.960113525E-1,3.170623779E-1
1.909698486E0,1.349792480E-1,-3.640594482E-1,2.978973389E-1
1.912200928E0,1.765289307E-1,-3.502044678E-1,2.627410889E-1
1.914672851E0,1.679992676E-1,-3.427581787E-1,2.243957520E-1
1.917144775E0,1.690673828E-1,-2.873535156E-1,1.924285889E-1
1.919647217E0,1.861114502E-1,-2.000122070E-1,1.583404541E-1
1.922119140E0,1.893157959E-1,-1.499328613E-1,1.327819824E-1
1.924591064E0,2.010345459E-1,-1.382141113E-1,1.029510498E-1
1.927093506E0,2.159423828E-1,-1.233062744E-1,6.565856934E-2
1.929565430E0,2.255249023E-1,-8.708190918E-2,2.091979980E-2
1.932067871E0,2.297821045E-1,-6.791687012E-2,-2.700805664E-2
1.934539795E0,2.404479980E-1,-4.873657227E-2,-7.069396973E-2
1.937011719E0,2.500305176E-1,-3.701782227E-2,-1.218261719E-1
1.939514160E0,2.617492676E-1,-2.929687500E-3,-1.804046631E-1
1.941986084E0,2.851867676E-1,4.287719727E-2,-2.400665283E-1
1.944458008E0,3.054199219E-1,7.057189941E-2,-2.954559326E-1
1.946960449E0,3.246002197E-1,9.080505371E-2,-3.529815674E-1
1.949432373E0,3.395080566E-1,1.206359863E-1,-4.051818848E-1
1.951934814E0,3.501586914E-1,1.589813232E-1,-4.616394043E-1
1.954406738E0,3.693389893E-1,1.994628906E-1,-5.213012695E-1
1.956878662E0,3.863830566E-1,2.378234863E-1,-5.766906738E-1
1.959381103E0,4.034271240E-1,2.708435059E-1,-6.374053955E-1
1.961853027E0,4.140777588E-1,2.964019775E-1,-6.959991455E-1
1.964324951E0,4.428405762E-1,3.273010254E-1,-7.535247803E-1
1.966827392E0,4.524230957E-1,3.145141602E-1,-8.195648193E-1
1.969299316E0,4.513702393E-1,2.655181885E-1,-8.856201172E-1
1.971801758E0,4.609527588E-1,2.282257080E-1,-9.527282715E-1
1.974273681E0,4.577484131E-1,2.090606689E-1,-1.024093628E0
1.976745605E0,4.428405762E-1,1.941375732E-1,-1.092269897E0
1.979248047E0,4.513702393E-1,1.579284668E-1,-1.162582397E0
1.981719971E0,4.566955566E-1,1.206359863E-1,-1.232894897E0
1.984191894E0,4.524230957E-1,1.259613037E-1,-1.294677734E0
1.986694336E0,4.470977783E-1,1.696472168E-1,-1.342620850E0
1.989166260E0,4.407043457E-1,2.186431885E-1,-1.391616821E0
1.991668701E0,4.353790283E-1,2.676391602E-1,-1.434219360E0
1.994140625E0,4.332580566E-1,3.304901123E-1,-1.478973389E0
1.996612549E0,4.343261719E-1,4.071960449E-1,-1.522644043E0
1.999114990E0,4.407043457E-1,4.902801514E-1,-1.562057495E0
2.001586914E0,4.460449219E-1,5.520782471E-1,-1.600402832E0
2.004058838E0,4.492340088E-1,5.978851318E-1,-1.638763428E0
2.006561279E0,4.556274414E-1,6.596679688E-1,-1.679229736E0
2.009033203E0,4.577484131E-1,7.427520752E-1,-1.719711304E0
2.011535644E0,4.662780762E-1,8.343658447E-1,-1.755935669E0
2.014007568E0,4.875793457E-1,9.206542969E-1,-1.783630371E0
2.016479492E0,5.003662109E-1,9.930877686E-1,-1.812393188E0
2.018981933E0,5.056915283E-1,1.043151855E0,-1.846481323E0
2.021453857E0,5.184783936E-1,1.084701538E0,-1.879501343E0
2.023925781E0,5.291290283E-1,1.115600586E0,-1.918914795E0
2.026428223E0,5.355224609E-1,1.137969971E0,-1.960464478E0
2.028900146E0,5.493621826E-1,1.157135010E0,-1.995620728E0
2.031402588E0,5.685424805E-1,1.167800903E0,-2.027572632E0
2.033874512E0,5.845184326E-1,1.172058105E0,-2.063796997E0
2.036346435E0,6.047668457E-1,1.169921875E0,-2.095748901E0
2.038848877E0,6.143493652E-1,1.168853760E0,-2.123458862E0
2.041320801E0,6.218109131E-1,1.166732788E0,-2.150085449E0
2.043792724E0,6.356506348E-1,1.152877808E0,-2.176712036E0
2.046295166E0,6.569671631E-1,1.136901855E0,-2.200149536E0
2.048767090E0,6.740112305E-1,1.124114990E0,-2.219329834E0
2.051269531E0,6.942443848E-1,1.101745605E0,-2.242767334E0
2.053741455E0,7.123565674E-1,1.070861816E0,-2.264068604E0
2.056213379E0,7.208709717E-1,1.038894653E0,-2.285369873E0
2.058715820E0,7.347259521E-1,1.010131836E0,-2.305618286E0
2.061187744E0,7.549591064E-1,9.952239990E-1,-2.324783325E0
2.063659668E0,7.645568848E-1,9.792480469E-1,-2.339706421E0
2.066162109E0,7.879943848E-1,9.611358643E-1,-2.346099854E0
2.068634033E0,8.071594238E-1,9.302368164E-1,-2.348220825E0
2.071136474E0,8.210144043E-1,8.844299316E-1,-2.354614258E0
2.073608398E0,8.316650391E-1,8.205108643E-1,-2.354614258E0
2.076080322E0,8.412475586E-1,7.384948730E-1,-2.361007690E0
2.078582764E0,8.476409912E-1,6.490173340E-1,-2.362075806E0
2.081054687E0,8.561706543E-1,5.531311035E-1,-2.364196777E0
2.083526611E0,8.668212891E-1,4.444732666E-1,-2.363143921E0
2.086029053E0,8.710784912E-1,3.358154297E-1,-2.361007690E0
2.088500976E0,8.795928955E-1,2.303619385E-1,-2.367401123E0
2.091003418E0,8.774719238E-1,1.270294189E-1,-2.365264893E0
2.093475342E0,8.764038086E-1,3.222656250E-2,-2.361007690E0
2.095947265E0,8.774719238E-1,-5.831909180E-2,-2.352478027E0
2.098449707E0,8.774719238E-1,-1.414184570E-1,-2.347152710E0
2.100921631E0,8.764038086E-1,-2.117309570E-1,-2.339706421E0
2.103393555E0,8.742675781E-1,-2.713775635E-1,-2.332244873E0
2.105895996E0,8.710784912E-1,-3.331604004E-1,-2.321594238E0
2.108367920E0,8.657531738E-1,-3.874969482E-1,-2.316268921E0
2.110870361E0,8.529663086E-1,-4.354248047E-1,-2.310943604E0
2.113342285E0,8.401794434E-1,-4.695129395E-1,-2.309875488E0
2.115814209E0,8.284606934E-1,-4.961547852E-1,-2.301345825E0
2.118316650E0,8.188781738E-1,-5.153198242E-1,-2.294967651E0
2.120788574E0,8.029022217E-1,-5.291748047E-1,-2.287506104E0
2.123260498E0,7.858581543E-1,-5.376892090E-1,-2.276855469E0
2.125762939E0,7.656097412E-1,-5.408935547E-1,-2.273651123E0
2.128234863E0,7.507019043E-1,-5.419616699E-1,-2.265136719E0
2.130737305E0,7.325897217E-1,-5.494079590E-1,-2.255538940E0
2.133209228E0,7.091522217E-1,-5.515441895E-1,-2.245956421E0
2.135681152E0,6.921081543E-1,-5.504760742E-1,-2.234237671E0
2.138183594E0,6.718750000E-1,-5.568695068E-1,-2.222518921E0
2.140655517E0,6.526947021E-1,-5.632629395E-1,-2.207611084E0
2.143127441E0,6.367187500E-1,-5.717773438E-1,-2.193756104E0
2.145629883E0,6.196746826E-1,-5.888214111E-1,-2.177780151E0
2.148101806E0,6.015625000E-1,-6.133270264E-1,-2.159667969E0
2.150604248E0,5.813293457E-1,-6.452789307E-1,-2.147949219E0
2.153076172E0,5.621490479E-1,-6.783142090E-1,-2.135177612E0
2.155548096E0,5.440368652E-1,-7.124023438E-1,-2.120254517E0
2.158050537E0,5.259399414E-1,-7.539367676E-1,-2.103210449E0
2.160522461E0,5.131530762E-1,-7.976226807E-1,-2.089370728E0
2.163024902E0,4.929046631E-1,-8.487548828E-1,-2.073379517E0
2.165496826E0,4.726715088E-1,-9.116058350E-1,-2.056335449E0
2.167968750E0,4.556274414E-1,-9.861755371E-1,-2.044616699E0
2.170471191E0,4.449768066E-1,-1.065002441E0,-2.038238525E0
2.172943115E0,4.279327393E-1,-1.151290894E0,-2.032897949E0
2.175415039E0,4.183349609E-1,-1.241836548E0,-2.030776978E0
2.177917480E0,4.108886719E-1,-1.327056885E0,-2.030776978E0
2.180389404E0,4.087524414E-1,-1.405883789E0,-2.025451660E0
2.182861328E0,4.012908936E-1,-1.482589722E0,-2.023315430E0
2.185363769E0,3.970336914E-1,-1.545440674E0,-2.020126343E0
2.187835693E0,3.959655762E-1,-1.591247559E0,-2.023315430E0
2.190338135E0,3.959655762E-1,-1.620010376E0,-2.024383545E0
2.192810058E0,3.959655762E-1,-1.643432617E0,-2.023315430E0
2.195281982E0,3.970336914E-1,-1.655151367E0,-2.025451660E0
2.197784424E0,3.948974609E-1,-1.655151367E0,-2.029708862E0
2.200256348E0,3.970336914E-1,-1.645568848E0,-2.037170410E0
2.202728271E0,4.023590088E-1,-1.623199463E0,-2.042495728E0
2.205230713E0,4.066162109E-1,-1.591247559E0,-2.049942017E0
2.207702637E0,4.172821045E-1,-1.553955078E0,-2.062728882E0
2.210205078E0,4.257965088E-1,-1.503890991E0,-2.072326660E0
2.212677002E0,4.407043457E-1,-1.455947876E0,-2.085098267E0
2.215148926E0,4.556274414E-1,-1.406951904E0,-2.103210449E0
2.217651367E0,4.758605957E-1,-1.347290039E0,-2.122390747E0
2.220123291E0,4.918365479E-1,-1.291900635E0,-2.145828247E0
2.222595215E0,5.110168457E-1,-1.235443115E0,-2.166061401E0
2.225097656E0,5.291290283E-1,-1.173660278E0,-2.191635132E0
2.227569580E0,5.461730957E-1,-1.111877441E0,-2.217193604E0
2.230072021E0,5.632171631E-1,-1.050079346E0,-2.252349854E0
2.232543945E0,5.845184326E-1,-9.893646240E-1,-2.289627075E0
2.235015869E0,6.026306152E-1,-9.318389893E-1,-2.329055786E0
2.237518310E0,6.164855957E-1,-8.785858154E-1,-2.374847412E0
2.239990234E0,6.313934326E-1,-8.199920654E-1,-2.423858643E0
2.242492676E0,6.505737305E-1,-7.603302002E-1,-2.468597412E0
2.244964599E0,6.676177979E-1,-7.028045654E-1,-2.512268066E0
2.247436523E0,6.878509521E-1,-6.442260742E-1,-2.562347412E0
2.249938965E0,7.059631348E-1,-5.845642090E-1,-2.615600586E0
2.252410889E0,7.251434326E-1,-5.249176025E-1,-2.668869019E0
2.254882812E0,7.421875000E-1,-4.684448242E-1,-2.728515625E0
2.257385254E0,7.602844238E-1,-4.119873047E-1,-2.790313721E0
2.259857178E0,7.773284912E-1,-3.555297852E-1,-2.861679077E0
2.262329101E0,7.933197021E-1,-2.905578613E-1,-2.927734375E0
2.264831543E0,8.071594238E-1,-2.330322266E-1,-2.996963501E0
2.267303467E0,8.188781738E-1,-1.659240723E-1,-3.061950684E0
2.269805908E0,8.284606934E-1,-9.880065918E-2,-3.122665405E0
2.272277832E0,8.369903564E-1,-4.022216797E-2,-3.187652588E0
2.274749756E0,8.465728760E-1,1.837158203E-2,-3.250503540E0
2.277252197E0,8.551025391E-1,6.417846680E-2,-3.314422607E0
2.279724121E0,8.614959717E-1,1.089172363E-1,-3.377273560E0
2.282226562E0,8.700103760E-1,1.547241211E-1,-3.442245483E0
2.284698486E0,8.817291260E-1,1.909484863E-1,-3.505096436E0
2.287170410E0,8.955841064E-1,2.250366211E-1,-3.569015503E0
2.289672851E0,9.136962891E-1,2.463378906E-1,-3.619079590E0
2.292144775E0,9.349975586E-1,2.346191406E-1,-3.642517090E0
2.294647217E0,9.626922607E-1,1.962738037E-1,-3.688323975E0
2.297119140E0,9.882507324E-1,2.005310059E-1,-3.759704590E0
2.299591064E0,1.011688232E0,2.367553711E-1,-3.837463379E0
2.302093506E0,1.040451050E0,2.772369385E-1,-3.904571533E0
2.304565430E0,1.082000732E0,3.582000732E-1,-3.954635620E0
2.307037353E0,1.123550415E0,4.370269775E-1,-4.004714966E0
2.309539795E0,1.162963867E0,5.115966797E-1,-4.053710938E0
2.312011719E0,1.203445435E0,5.733795166E-1,-4.110168457E0
2.314483642E0,1.244979858E0,6.213073730E-1,-4.164505005E0
2.316986084E0,1.293991089E0,6.724395752E-1,-4.222030640E0
2.319488525E0,1.356842041E0,7.182464600E-1,-4.269958496E0
2.321960449E0,1.409042358E0,7.725830078E-1,-4.323226929E0
2.324432373E0,1.462295532E0,8.343658447E-1,-4.372222900E0
2.326904297E0,1.518753052E0,8.929595947E-1,-4.422286987E0
2.329406738E0,1.573089600E0,9.472808838E-1,-4.471298218E0
2.331878662E0,1.624221802E0,9.888305664E-1,-4.526687622E0
2.334350586E0,1.678543091E0,1.026107788E0,-4.583145142E0
2.336853027E0,1.732879639E0,1.054870605E0,-4.638534546E0
2.339324951E0,1.784011841E0,1.085769653E0,-4.693939209E0
2.341827392E0,1.835144043E0,1.102813721E0,-4.739746094E0
2.344299316E0,1.885208130E0,1.111328125E0,-4.783416748E0
2.346771240E0,1.933151245E0,1.113464355E0,-4.830291748E0
2.349273681E0,1.985351562E0,1.108139038E0,-4.866516113E0
2.351745605E0,2.031158447E0,1.102813721E0,-4.898468018E0
2.354217529E0,2.066299438E0,1.085769653E0,-4.936813354E0
2.356719971E0,2.095062256E0,1.063400269E0,-4.970901489E0
2.359191894E0,2.128097534E0,1.029312134E0,-4.999664307E0
2.361694336E0,2.152587891E0,9.877624512E-1,-5.033752441E0
2.364166260E0,2.172836304E0,9.462127686E-1,-5.072097778E0
2.366638183E0,2.192001343E0,8.908233643E-1,-5.107254028E0
2.369140625E0,2.204788208E0,8.247833252E-1,-5.142410278E0
2.371612549E0,2.219696045E0,7.566070557E-1,-5.185028076E0
2.374084473E0,2.235687256E0,6.916198730E-1,-5.224441528E0
2.376586914E0,2.245269775E0,6.234436035E-1,-5.264923096E0
2.379058838E0,2.250595093E0,5.595245361E-1,-5.306457520E0
2.381561279E0,2.260177612E0,5.030670166E-1,-5.345870972E0
2.384033203E0,2.270828247E0,4.530029297E-1,-5.388488770E0
2.386505127E0,2.279357910E0,4.040069580E-1,-5.433227539E0
2.389007568E0,2.293212891E0,3.624572754E-1,-5.475845337E0
2.391479492E0,2.308120728E0,3.251647949E-1,-5.528030396E0
2.393951416E0,2.321975708E0,2.878875732E-1,-5.582366943E0
2.396453857E0,2.335815430E0,2.569885254E-1,-5.635635376E0
2.398925781E0,2.343276978E0,2.314300537E-1,-5.687820435E0
2.401428223E0,2.354995728E0,2.175750732E-1,-5.736831665E0
2.403900146E0,2.363510132E0,2.154541016E-1,-5.783706665E0
2.406372070E0,2.373107910E0,2.239685059E-1,-5.836959839E0
2.408874512E0,2.382690430E0,2.505950928E-1,-5.882766724E0
2.411346435E0,2.389083862E0,2.889556885E-1,-5.925384521E0
2.413848877E0,2.397598267E0,3.326263428E-1,-5.958404541E0
2.416320801E0,2.406127930E0,3.837585449E-1,-5.985031128E0
2.418792724E0,2.412521362E0,4.284973145E-1,-6.004211426E0
2.421295166E0,2.421035767E0,4.700469971E-1,-6.013793945E0
2.423767090E0,2.424240112E0,5.073242188E-1,-6.021255493E0
2.426239014E0,2.423171997E0,5.435485840E-1,-6.021255493E0
2.428741455E0,2.421035767E0,5.797729492E-1,-6.011672974E0
2.431213379E0,2.413574219E0,6.085357666E-1,-6.004211426E0
2.433685303E0,2.401870728E0,6.277008057E-1,-5.990356445E0
2.436187744E0,2.389083862E0,6.362304688E-1,-5.975448608E0
2.438659668E0,2.372039795E0,6.277008057E-1,-5.959472656E0
2.441162109E0,2.350723267E0,6.063995361E-1,-5.941360474E0
2.443634033E0,2.325164795E0,5.669860840E-1,-5.918991089E0
2.446105957E0,2.304931641E0,5.265045166E-1,-5.891296387E0
2.448608398E0,2.275100708E0,4.775085449E-1,-5.865722656E0
2.451080322E0,2.245269775E0,4.242401123E-1,-5.841232300E0
2.453582764E0,2.211181641E0,3.784332275E-1,-5.817794800E0
2.456054687E0,2.177093506E0,3.326263428E-1,-5.796478271E0
2.458526611E0,2.146194458E0,2.996063232E-1,-5.773056030E0
2.461029053E0,2.117431641E0,2.719116211E-1,-5.751739502E0
2.463500976E0,2.088668823E0,2.463378906E-1,-5.731506348E0
2.465972900E0,2.058853149E0,2.367553711E-1,-5.713394165E0
2.468475342E0,2.034347534E0,2.335510254E-1,-5.701675415E0
2.470947265E0,2.011978149E0,2.282257080E-1,-5.696350098E0
2.473419189E0,1.980010986E0,2.303619385E-1,-5.696350098E0
2.475921631E0,1.944869995E0,2.399444580E-1,-5.694213867E0
2.478393555E0,1.903320312E0,2.495422363E-1,-5.687820435E0
2.480895996E0,1.860702515E0,2.719116211E-1,-5.677169800E0
2.483367920E0,1.818099976E0,3.059997559E-1,-5.656936646E0
2.485839844E0,1.771224976E0,3.582000732E-1,-5.623916626E0
2.488342285E0,1.725418091E0,4.210510254E-1,-5.586624146E0
2.490814209E0,1.679611206E0,4.924163818E-1,-5.544021606E0
2.493316650E0,1.634872437E0,5.648498535E-1,-5.491821289E0
2.495788574E0,1.590133667E0,6.330261230E-1,-5.430038452E0
2.498260498E0,1.545394897E0,6.905517578E-1,-5.368255615E0
2.500762939E0,1.491058350E0,7.352905273E-1,-5.304336548E0
2.503234863E0,1.439926147E0,7.630004883E-1,-5.226562500E0
2.505706787E0,1.390930176E0,7.821655273E-1,-5.153060913E0
2.508209228E0,1.340866089E0,7.832336426E-1,-5.071044922E0
2.510681152E0,1.287597656E0,7.736511230E-1,-4.989013672E0
2.513153076E0,1.223678589E0,7.491455078E-1,-4.899536133E0
2.515655517E0,1.169357300E0,7.097320557E-1,-4.815368652E0
2.518127441E0,1.110763550E0,6.724395752E-1,-4.729095459E0
2.520629883E0,1.045776367E0,6.330261230E-1,-4.644927979E0
2.523101806E0,9.882507324E-1,6.032104492E-1,-4.568237305E0
2.525573730E0,9.296722412E-1,5.829620361E-1,-4.493667603E0
2.528076172E0,8.764038086E-1,5.808258057E-1,-4.427612305E0
2.530548096E0,8.220825195E-1,5.957489014E-1,-4.378616333E0
2.533050537E0,7.624206543E-1,6.170501709E-1,-4.348785400E0
2.535522461E0,6.974334717E-1,6.255798340E-1,-4.329620361E0
2.537994385E0,6.292572021E-1,6.159820557E-1,-4.326416016E0
2.540496826E0,5.429840088E-1,6.117248535E-1,-4.347717285E0
2.542968750E0,4.588165283E-1,6.340942383E-1,-4.374359131E0
2.545440674E0,3.831939697E-1,6.617889404E-1,-4.398864746E0
2.547943115E0,3.064880371E-1,6.862945557E-1,-4.407379150E0
2.550415039E0,2.287292480E-1,6.990814209E-1,-4.397796631E0
2.552917480E0,1.562805176E-1,7.161254883E-1,-4.383941650E0
2.555389404E0,9.024047852E-2,7.342376709E-1,-4.353057861E0
2.557861328E0,1.992797852E-2,7.661895752E-1,-4.327484131E0
2.560363769E0,-4.504394531E-2,8.109283447E-1,-4.302978516E0
2.562835693E0,-1.100311279E-1,8.620605469E-1,-4.271026611E0
2.565338135E0,-1.782073975E-1,9.217224121E-1,-4.238006592E0
2.567810058E0,-2.474517822E-1,9.707183838E-1,-4.196456909E0
2.570281982E0,-3.230895996E-1,1.006942749E0,-4.139999390E0
2.572784424E0,-4.083099365E-1,1.026107788E0,-4.077148438E0
2.575256348E0,-4.967193604E-1,1.035705566E0,-4.000442505E0
2.577728271E0,-5.861968994E-1,1.038894653E0,-3.913101196E0
2.580230713E0,-6.724853516E-1,1.038894653E0,-3.820419312E0
2.582702637E0,-7.587738037E-1,1.038894653E0,-3.724548340E0
2.585174560E0,-8.471984863E-1,1.044219971E0,-3.616958618E0
2.587677002E0,-9.324188232E-1,1.051681519E0,-3.512557983E0
2.590148926E0,-1.020828247E0,1.063400269E0,-3.404968262E0
2.592651367E0,-1.111373901E0,1.065521240E0,-3.296310425E0
2.595123291E0,-1.208312988E0,1.064468384E0,-3.185516357E0
2.597595215E0,-1.305252075E0,1.063400269E0,-3.072601318E0
2.600097656E0,-1.405395508E0,1.065521240E0,-2.962875366E0
2.602569580E0,-1.508728027E0,1.068725586E0,-2.849960327E0
2.605041504E0,-1.614181519E0,1.072982788E0,-2.743438721E0
2.607543945E0,-1.721771240E0,1.065521240E0,-2.644363403E0
2.610015869E0,-1.832565308E0,1.048477173E0,-2.561279297E0
2.612518310E0,-1.948669434E0,1.009063721E0,-2.481384277E0
2.614990234E0,-2.066925049E0,9.589996338E-1,-2.402557373E0
2.617462158E0,-2.189422607E0,9.089355469E-1,-2.315200806E0
2.619964599E0,-2.311935425E0,8.439483643E-1,-2.227844238E0
2.622436523E0,-2.416320801E0,7.608642578E-1,-2.142623901E0
2.624908447E0,-2.513259888E0,6.852264404E-1,-2.059539795E0
2.627410889E0,-2.599548340E0,6.415557861E-1,-1.975387573E0
2.629882812E0,-2.671997070E0,6.159820557E-1,-1.885894775E0
2.632354736E0,-2.738037109E0,5.968170166E-1,-1.796417236E0
2.634857178E0,-2.810470581E0,5.808258057E-1,-1.705871582E0
2.637329101E0,-2.886108398E0,5.691223145E-1,-1.616394043E0
2.639831543E0,-2.958541870E0,5.648498535E-1,-1.525833130E0
2.642303467E0,-3.022460938E0,5.744476318E-1,-1.432098389E0
2.644775390E0,-3.078918457E0,5.957489014E-1,-1.342620850E0
2.647277832E0,-3.137512207E0,6.234436035E-1,-1.249938965E0
2.649749756E0,-3.197174072E0,6.415557861E-1,-1.143402100E0
2.652252197E0,-3.271728516E0,6.522064209E-1,-1.037948608E0
2.654724121E0,-3.342041016E0,6.799011230E-1,-9.367523193E-1
2.657196045E0,-3.408096313E0,7.310333252E-1,-8.323516846E-1
2.659698486E0,-3.473068237E0,8.002777100E-1,-7.364807129E-1
2.662170410E0,-3.534851074E0,8.695220947E-1,-6.459350586E-1
2.664642334E0,-3.591308594E0,9.398345947E-1,-5.607147217E-1
2.667144775E0,-3.646713257E0,1.006942749E0,-4.786834717E-1
2.669616699E0,-3.698913574E0,1.071914673E0,-4.009246826E-1
2.672119140E0,-3.750045776E0,1.149688721E0,-3.306121826E-1
2.674591064E0,-3.800109863E0,1.234909058E0,-2.688293457E-1
2.677062988E0,-3.859756470E0,1.316925049E0,-2.113037109E-1
2.679565430E0,-3.923675537E0,1.401092529E0,-1.559143066E-1
2.682037353E0,-3.986526489E0,1.479919434E0,-1.015777588E-1
2.684509277E0,-4.048309326E0,1.560882568E0,-3.765869141E-2
2.687011719E0,-4.099441528E0,1.641830444E0,4.116821289E-2
2.689483642E0,-4.144180298E0,1.719604492E0,1.221313477E-1
2.691986084E0,-4.185729980E0,1.784576416E0,2.201232910E-1
2.694458008E0,-4.214492798E0,1.839981079E0,3.298492432E-1
2.696929931E0,-4.237930298E0,1.867675781E0,4.544830322E-1
2.699432373E0,-4.282669067E0,1.867675781E0,6.004333496E-1
2.701904297E0,-4.342330933E0,1.863418579E0,7.570190430E-1
2.704376221E0,-4.403045654E0,1.880462646E0,9.306640625E-1
2.706878662E0,-4.476547241E0,1.930526733E0,1.122406006E0
2.709350586E0,-4.564971924E0,1.975265503E0,1.331207275E0
2.711853027E0,-4.671493530E0,2.014678955E0,1.558105469E0
2.714324951E0,-4.783340454E0,2.057296753E0,1.798858643E0
2.716796875E0,-4.897323608E0,2.097763062E0,2.058776855E0
2.719299316E0,-5.013442993E0,2.119079590E0,2.324020386E0
2.721771240E0,-5.131683350E0,2.109481812E0,2.579696655E0
2.724243164E0,-5.262710571E0,2.060485840E0,2.865173340E0
2.726745605E0,-5.427825928E0,1.950759888E0,3.178375244E0
2.729217529E0,-5.616378784E0,1.848495483E0,3.494750977E0
2.731719971E0,-5.782562256E0,1.819732666E0,3.832443237E0
2.734191894E0,-5.931701660E0,1.828262329E0,4.204223633E0
2.736663818E0,-6.092559814E0,1.813339233E0,4.587707520E0
2.739166260E0,-6.278976440E0,1.751556396E0,4.970138550E0
2.741638183E0,-6.480316162E0,1.669540405E0,5.345123291E0
2.744110107E0,-6.692306519E0,1.589645386E0,5.721160889E0
2.746612549E0,-6.908554077E0,1.496963501E0,6.092926025E0
2.749084473E0,-7.124801636E0,1.387237549E0,6.468963623E0
2.751586914E0,-7.337844849E0,1.272186279E0,6.851394653E0
2.754058838E0,-7.531723022E0,1.145416260E0,7.246612549E0
2.756530762E0,-7.706436157E0,1.008010864E0,7.655670166E0
2.759033203E0,-7.867279053E0,8.514099121E-1,8.069000244E0
2.761505127E0,-8.020690918E0,6.724395752E-1,8.497238159E0
2.763977051E0,-8.166625977E0,4.711151123E-1,8.923339844E0
2.766479492E0,-8.302978516E0,2.474060059E-1,9.352645874E0
2.768951416E0,-8.434005737E0,1.730346680E-2,9.790466309E0
2.771453857E0,-8.554382324E0,-2.277069092E-1,1.023042297E1
2.773925781E0,-8.665176392E0,-4.748382568E-1,1.066717529E1
2.776397705E0,-8.755722046E0,-7.305145264E-1,1.111138916E1
2.778900146E0,-8.839874268E0,-1.001083374E0,1.156306458E1
2.781372070E0,-8.911239624E0,-1.279113770E0,1.201899719E1
2.783843994E0,-8.966644287E0,-1.581649780E0,1.248345947E1
2.786346435E0,-9.010314941E0,-1.899108887E0,1.295216370E1
2.788818359E0,-9.033752441E0,-2.234664917E0,1.342727661E1
2.791320801E0,-9.038009644E0,-2.555297852E0,1.391410828E1
2.793792724E0,-9.004989624E0,-2.841857910E0,1.441584778E1
2.796264648E0,-8.932556152E0,-3.139068604E0,1.491651917E1
2.798767090E0,-8.840942383E0,-3.446929932E0,1.542677307E1
2.801239014E0,-8.713104248E0,-3.731353760E0,1.594023132E1
2.803741455E0,-8.547988892E0,-3.980636597E0,1.644303894E1
2.806213379E0,-8.361572266E0,-4.224578857E0,1.694798279E1
2.808685303E0,-8.174087524E0,-4.524978638E0,1.749446106E1
2.811187744E0,-7.991928101E0,-4.613403320E0,1.796423340E1
2.813659668E0,-7.747970581E0,-4.717788696E0,1.838288879E1
2.816131592E0,-7.562622070E0,-5.056549072E0,1.883668518E1
2.818634033E0,-7.373001099E0,-5.434707642E0,1.929049683E1
2.821105957E0,-7.102432251E0,-5.758560181E0,1.972618103E1
2.823608398E0,-6.825454712E0,-6.061096191E0,2.016720581E1
2.826080322E0,-6.499481201E0,-6.391326904E0,2.059011841E1
2.828552246E0,-6.140487671E0,-6.726882935E0,2.099385071E1
2.831054687E0,-5.755935669E0,-7.074157715E0,2.137414551E1
2.833526611E0,-5.341537476E0,-7.442733765E0,2.173420715E1
2.835998535E0,-4.887741089E0,-7.801727295E0,2.206124878E1
2.838500976E0,-4.400909424E0,-8.144744873E0,2.235952759E1
2.840972900E0,-3.876800537E0,-8.465393066E0,2.263330078E1
2.843444824E0,-3.326065063E0,-8.765792847E0,2.287617493E1
2.845947265E0,-2.748687744E0,-9.027847290E0,2.307324219E1
2.848419189E0,-2.146820068E0,-9.247299194E0,2.322026062E1
2.850921631E0,-1.527893066E0,-9.423065186E0,2.333850098E1
2.853393555E0,-9.047241211E-1,-9.551956177E0,2.340986633E1
2.855865478E0,-2.762145996E-1,-9.631851196E0,2.342691040E1
2.858367920E0,3.405761719E-1,-9.672332764E0,2.339602661E1
2.860839844E0,9.435119629E-1,-9.668075562E0,2.332997131E1
2.863342285E0,1.529418945E0,-9.609481812E0,2.321919250E1
2.865814209E0,2.094009399E0,-9.483779907E0,2.306152344E1
2.868286133E0,2.628768921E0,-9.278182983E0,2.286871338E1
2.870788574E0,3.125183105E0,-8.983108521E0,2.265034485E1
2.873260498E0,3.576843262E0,-8.591094971E0,2.240745544E1
2.875732422E0,3.992309570E0,-8.100006104E0,2.211131287E1
2.878234863E0,4.365142822E0,-7.516235352E0,2.180558777E1
2.880706787E0,4.679397583E0,-6.871749878E0,2.153713989E1
2.883209228E0,4.935058594E0,-6.204895020E0,2.127401733E1
2.885681152E0,5.138534546E0,-5.524200439E0,2.096401978E1
2.888153076E0,5.289794922E0,-4.810470581E0,2.063166809E1
2.890655517E0,5.398452759E0,-4.089279175E0,2.030781555E1
2.893127441E0,5.466629028E0,-3.403259277E0,1.998611450E1
2.895599365E0,5.497528076E0,-2.774749756E0,1.966439819E1
2.898101806E0,5.500717163E0,-2.199508667E0,1.933842468E1
2.900573730E0,5.478347778E0,-1.669006348E0,1.900500488E1
2.903076172E0,5.431472778E0,-1.198150635E0,1.867051697E1
2.905548096E0,5.368621826E0,-7.976226807E-1,1.833389282E1
2.908020019E0,5.284469604E0,-4.663238525E-1,1.799832153E1
2.910522461E0,5.184341431E0,-1.989440918E-1,1.766809082E1
2.912994385E0,5.083129883E0,-7.186889648E-3,1.734851074E1
2.915466308E0,4.980865479E0,1.142425537E-1,1.703425598E1
2.917968750E0,4.849838257E0,1.462097168E-1,1.672106934E1
2.920440674E0,4.716690063E0,1.206359863E-1,1.640043640E1
2.922943115E0,4.583526611E0,8.761596680E-2,1.608724976E1
2.925415039E0,4.443969727E0,3.861999512E-2,1.578044128E1
2.927886963E0,4.311889648E0,-5.513000488E-2,1.548324585E1
2.930389404E0,4.179794312E0,-2.095947266E-1,1.518922424E1
2.932861328E0,4.059417725E0,-4.119873047E-1,1.489947510E1
2.935333252E0,3.944366455E0,-6.378326416E-1,1.460758972E1
2.937835693E0,3.837844849E0,-8.689880371E-1,1.430718994E1
2.940307617E0,3.736633301E0,-1.089508057E0,1.399507141E1
2.942810058E0,3.633316040E0,-1.284439087E0,1.367335510E1
2.945281982E0,3.533172607E0,-1.448501587E0,1.334098816E1
2.947753906E0,3.442626953E0,-1.566741943E0,1.299691772E1
2.950256348E0,3.360595703E0,-1.631713867E0,1.265283203E1
2.952728271E0,3.289230347E0,-1.637054443E0,1.230662537E1
2.955200195E0,3.226379395E0,-1.586975098E0,1.195507812E1
2.957702637E0,3.164596558E0,-1.493240356E0,1.160887146E1
2.960174560E0,3.099609375E0,-1.365402222E0,1.125946045E1
2.962646484E0,3.035690308E0,-1.209869385E0,1.091218567E1
2.965148926E0,2.969650269E0,-1.026657104E0,1.056172180E1
2.967620849E0,2.907867432E0,-8.306427002E-1,1.021763611E1
2.970123291E0,2.851409912E0,-6.229095459E-1,9.876754761E0
2.972595215E0,2.796005249E0,-4.183807373E-1,9.534805298E0
2.975067139E0,2.744873047E0,-1.989440918E-1,9.185394287E0
2.977569580E0,2.702270508E0,1.197814941E-2,8.835983276E0
2.980041504E0,2.663925171E0,1.984100342E-1,8.497238159E0
2.982543945E0,2.628768921E0,3.731079102E-1,8.168060303E0
2.985015869E0,2.595748901E0,5.350341797E-1,7.846359253E0
2.987487793E0,2.566986084E0,6.862945557E-1,7.535293579E0
2.989990234E0,2.536087036E0,8.269042969E-1,7.237030029E0
2.992462158E0,2.501998901E0,9.419555664E-1,6.950469971E0
2.994934082E0,2.473236084E0,1.029312134E0,6.678833008E0
2.997436523E0,2.439147949E0,1.096420288E0,6.414642334E0
2.999908447E0,2.413574219E0,1.135833740E0,6.163238525E0
3.002410889E0,2.390151978E0,1.151809692E0,5.918228149E0
3.004882812E0,2.375228882E0,1.142227173E0,5.682800293E0
3.007354736E0,2.366714478E0,1.111328125E0,5.455902100E0
3.009857178E0,2.360321045E0,1.066589355E0,5.233261108E0
3.012329101E0,2.361389160E0,1.002685547E0,5.015945435E0
3.014801025E0,2.361389160E0,9.249114990E-1,4.801834106E0
3.017303467E0,2.366714478E0,8.407592773E-1,4.596237183E0
3.019775390E0,2.370971680E0,7.480773926E-1,4.391708374E0
3.022277832E0,2.380554199E0,6.511383057E-1,4.196762085E0
3.024749756E0,2.392272949E0,5.541992188E-1,4.010345459E0
3.027221680E0,2.406127930E0,4.657897949E-1,3.829238892E0
3.029724121E0,2.419967651E0,3.709716797E-1,3.665191650E0
3.032196045E0,2.432754517E0,2.825622559E-1,3.509658813E0
3.034667969E0,2.446609497E0,1.962738037E-1,3.352005005E0
3.037170410E0,2.467910767E0,1.110534668E-1,3.198608398E0
3.039642334E0,2.479629517E0,3.861999512E-2,3.049468994E0
3.042144775E0,2.493469238E0,-2.317810059E-2,2.900329590E0
3.044616699E0,2.504135132E0,-7.749938965E-2,2.755462646E0
3.047088623E0,2.514785767E0,-1.115875244E-1,2.616973877E0
3.049591064E0,2.524368286E0,-1.158447266E-1,2.478485107E0
3.052062988E0,2.529693604E0,-1.041259766E-1,2.347457886E0
3.054534912E0,2.535018921E0,-7.749938965E-2,2.220703125E0
3.057037353E0,2.528625488E0,-2.743530273E-2,2.093933105E0
3.059509277E0,2.512649536E0,3.755187988E-2,1.973556519E0
3.062011719E0,2.493469238E0,1.142425537E-1,1.848922729E0
3.064483642E0,2.465774536E0,1.941375732E-1,1.730667114E0
3.066955566E0,2.435958862E0,2.772369385E-1,1.617752075E0
3.069458008E0,2.406127930E0,3.613891602E-1,1.508041382E0
3.071929931E0,2.375228882E0,4.348907471E-1,1.404708862E0
3.074401855E0,2.340072632E0,5.009460449E-1,1.303497314E0
3.076904297E0,2.302795410E0,5.520782471E-1,1.206558228E0
3.079376221E0,2.266571045E0,5.936126709E-1,1.114944458E0
3.081878662E0,2.233551025E0,6.149291992E-1,1.026535034E0
3.084350586E0,2.200531006E0,6.245117188E-1,9.413146973E-1
3.086822510E0,2.169631958E0,6.223754883E-1,8.518371582E-1
3.089324951E0,2.136611938E0,6.127929688E-1,7.666168213E-1
3.091796875E0,2.106781006E0,6.010742188E-1,6.888427734E-1
3.094268799E0,2.076950073E0,5.904235840E-1,6.164093018E-1
3.096771240E0,2.053527832E0,5.723114014E-1,5.429077148E-1
3.099243164E0,2.025817871E0,5.531311035E-1,4.704589844E-1
3.101745605E0,1.999191284E0,5.371551514E-1,4.108123779E-1
3.104217529E0,1.971496582E0,5.222473145E-1,3.522186279E-1
3.106689453E0,1.951263428E0,4.998779297E-1,2.957611084E-1
3.109191894E0,1.931015015E0,4.764404297E-1,2.488861084E-1
3.111663818E0,1.916107178E0,4.551391602E-1,2.094726562E-1
3.114166260E0,1.904388428E0,4.274291992E-1,1.753845215E-1
3.116638183E0,1.895858765E0,3.880157471E-1,1.445007324E-1
3.119110107E0,1.890533447E0,3.336944580E-1,1.157379150E-1
3.121612549E0,1.883087158E0,2.761688232E-1,8.697509766E-2
3.124084473E0,1.875625610E0,2.133178711E-1,6.033325195E-2
3.126556396E0,1.870300293E0,1.440734863E-1,3.263854980E-2
3.129058838E0,1.860702515E0,7.589721680E-2,1.133728027E-2
3.131530762E0,1.852188110E0,1.197814941E-2,-9.963989258E-3
3.134002685E0,1.841537476E0,-4.447937012E-2,-2.488708496E-2
3.136505127E0,1.831939697E0,-9.454345703E-2,-4.086303711E-2
3.138977051E0,1.809570312E0,-1.328887939E-1,-5.577087402E-2
3.141479492E0,1.789337158E0,-1.605834961E-1,-6.430053711E-2
3.143951416E0,1.764831543E0,-1.872253418E-1,-7.601928711E-2
3.146423340E0,1.738204956E0,-2.021331787E-1,-8.879089355E-2
3.148925781E0,1.708374023E0,-2.095947266E-1,-1.069030762E-1
3.151397705E0,1.670028687E0,-2.138519287E-1,-1.282196045E-1
3.153900146E0,1.633804321E0,-2.170562744E-1,-1.569671631E-1
3.156372070E0,1.594390869E0,-2.138519287E-1,-1.910552979E-1
3.158843994E0,1.551788330E0,-2.063903809E-1,-2.326049805E-1
3.161346435E0,1.507034302E0,-1.925506592E-1,-2.645721436E-1
3.163818359E0,1.464431763E0,-1.680450439E-1,-3.029174805E-1
3.166290283E0,1.419692993E0,-1.403503418E-1,-3.529815674E-1
3.168792724E0,1.378143311E0,-9.454345703E-2,-4.019775391E-1
3.171264648E0,1.329147339E0,-4.554748535E-2,-4.573822021E-1
3.173767090E0,1.271621704E0,-1.861572266E-3,-5.223541260E-1
3.176239014E0,1.216217041E0,4.499816895E-2,-5.915985107E-1
3.178710937E0,1.164031982E0,1.025238037E-1,-6.619110107E-1
3.181213379E0,1.112899780E0,1.611175537E-1,-7.386016846E-1
3.183685303E0,1.061767578E0,2.271728516E-1,-8.163757324E-1
3.186157226E0,1.018081665E0,2.868194580E-1,-8.888092041E-1
3.188659668E0,9.765319824E-1,3.326263428E-1,-9.559173584E-1
3.191131592E0,9.413909912E-1,3.805694580E-1,-1.028366089E0
3.193634033E0,9.115600586E-1,4.348907471E-1,-1.102935791E0
3.196105957E0,8.827972412E-1,4.892272949E-1,-1.174301147E0
3.198577881E0,8.508453369E-1,5.446166992E-1,-1.251007080E0
3.201080322E0,8.199462891E-1,6.000061035E-1,-1.327697754E0
3.203552246E0,7.933197021E-1,6.532745361E-1,-1.399078369E0
3.206024170E0,7.624206543E-1,7.108001709E-1,-1.466186523E0
3.208526611E0,7.315216064E-1,7.757720947E-1,-1.533294678E0
3.210998535E0,7.048950195E-1,8.386230469E-1,-1.590820312E0
3.213500976E0,6.708068848E-1,8.982849121E-1,-1.646209717E0
3.215972900E0,6.345825195E-1,9.451599121E-1,-1.700546265E0
3.218444824E0,6.026306152E-1,9.877624512E-1,-1.749542236E0
3.220947265E0,5.632171631E-1,1.014389038E0,-1.800674438E0
3.223419189E0,5.248718262E-1,1.031433105E0,-1.849685669E0
3.225891113E0,4.886474609E-1,1.035705566E0,-1.897613525E0
3.228393555E0,4.470977783E-1,1.028244019E0,-1.944488525E0
3.230865478E0,4.055633545E-1,1.019729614E0,-1.991363525E0
3.233367920E0,3.693389893E-1,1.017593384E0,-2.037170410E0
3.235839844E0,3.320617676E-1,1.012268066E0,-2.080841064E0
3.238311767E0,2.894439697E-1,9.994812012E-1,-2.122390747E0
3.240814209E0,2.500305176E-1,9.856414795E-1,-2.168197632E0
3.243286133E0,2.095489502E-1,9.792480469E-1,-2.207611084E0
3.245758056E0,1.658782959E-1,9.792480469E-1,-2.244888306E0
3.248260498E0,1.275177002E-1,9.664611816E-1,-2.282180786E0
3.250732422E0,9.342956543E-2,9.462127686E-1,-2.314132690E0
3.253234863E0,6.254577637E-2,9.291687012E-1,-2.345031738E0
3.255706787E0,3.485107422E-2,9.142608643E-1,-2.367401123E0
3.258178711E0,1.460266113E-2,8.897552490E-1,-2.386566162E0
3.260681152E0,-1.373291016E-3,8.578033447E-1,-2.406814575E0
3.263153076E0,-1.734924316E-2,8.183898926E-1,-2.427047729E0
3.265625000E0,-2.906799316E-2,7.789764404E-1,-2.440902710E0
3.268127441E0,-3.759765625E-2,7.416839600E-1,-2.452621460E0
3.270599365E0,-4.931640625E-2,7.044067383E-1,-2.469665527E0
3.273101806E0,-5.464172363E-2,6.639251709E-1,-2.481384277E0
3.275573730E0,-5.889892578E-2,6.340942383E-1,-2.492034912E0
3.278045654E0,-6.741333008E-2,6.127929688E-1,-2.497360229E0
3.280548096E0,-7.701110840E-2,5.978851318E-1,-2.508010864E0
3.283020019E0,-8.766174316E-2,5.872192383E-1,-2.519729614E0
3.285491943E0,-9.938049316E-2,5.904235840E-1,-2.528259277E0
3.287994385E0,-1.100311279E-1,6.032104492E-1,-2.536773682E0
3.290466308E0,-1.174926758E-1,6.223754883E-1,-2.549560547E0
3.292968750E0,-1.292114258E-1,6.372985840E-1,-2.558074951E0
3.295440674E0,-1.451873779E-1,6.479492188E-1,-2.575119019E0
3.297912598E0,-1.622314453E-1,6.532745361E-1,-2.590042114E0
3.300415039E0,-1.771392822E-1,6.639251709E-1,-2.613479614E0
3.302886963E0,-1.995086670E-1,6.703186035E-1,-2.640106201E0
3.305358887E0,-2.261505127E-1,6.649932861E-1,-2.664611816E0
3.307861328E0,-2.463836670E-1,6.553955078E-1,-2.695495605E0
3.310333252E0,-2.719573975E-1,6.394195557E-1,-2.723190308E0
3.312835693E0,-2.953796387E-1,6.181182861E-1,-2.750900269E0
3.315307617E0,-3.198852539E-1,5.882873535E-1,-2.780715942E0
3.317779541E0,-3.465118408E-1,5.552673340E-1,-2.818008423E0
3.320281982E0,-3.699493408E-1,5.115966797E-1,-2.853164673E0
3.322753906E0,-3.997802734E-1,4.679107666E-1,-2.896835327E0
3.325225830E0,-4.349365234E-1,4.221038818E-1,-2.940505981E0
3.327728271E0,-4.722137451E-1,3.837585449E-1,-2.979919434E0
3.330200195E0,-5.063018799E-1,3.518066406E-1,-3.031051636E0
3.332702637E0,-5.425262451E-1,3.315582275E-1,-3.085388184E0
3.335174560E0,-5.798187256E-1,3.209075928E-1,-3.137588501E0
3.337646484E0,-6.160278320E-1,3.006744385E-1,-3.184463501E0
3.340148926E0,-6.501159668E-1,2.537994385E-1,-3.223876953E0
3.342620849E0,-6.831359863E-1,2.047882080E-1,-3.265411377E0
3.345092773E0,-7.204284668E-1,1.621856689E-1,-3.313354492E0
3.347595215E0,-7.566528320E-1,1.344909668E-1,-3.368743896E0
3.350067139E0,-7.907409668E-1,1.131896973E-1,-3.428405762E0
3.352569580E0,-8.344116211E-1,8.654785156E-2,-3.485931396E0
3.355041504E0,-8.759613037E-1,6.098937988E-2,-3.544509888E0
3.357543945E0,-9.143066406E-1,4.713439941E-2,-3.605239868E0
3.360015869E0,-9.537200928E-1,4.287719727E-2,-3.661697388E0
3.362487793E0,-9.909973145E-1,3.967285156E-2,-3.718154907E0
3.364990234E0,-1.025085449E0,4.074096680E-2,-3.772476196E0
3.367462158E0,-1.058120728E0,4.074096680E-2,-3.828933716E0
3.369934082E0,-1.089004517E0,4.287719727E-2,-3.884338379E0
3.372436523E0,-1.117767334E0,4.499816895E-2,-3.941864014E0
3.374908447E0,-1.144409180E0,4.287719727E-2,-4.000442505E0
3.377380371E0,-1.171035767E0,3.541564941E-2,-4.056900024E0
3.379882812E0,-1.194473267E0,2.902221680E-2,-4.115493774E0
3.382354736E0,-1.218963623E0,2.476501465E-2,-4.170898438E0
3.384857178E0,-1.238143921E0,2.369689941E-2,-4.228408813E0
3.387329101E0,-1.255187988E0,1.837158203E-2,-4.282745361E0
3.389801025E0,-1.266906738E0,7.720947266E-3,-4.340270996E0
3.392303467E0,-1.285018921E0,2.593994141E-4,-4.392471313E0
3.394775390E0,-1.297805786E0,-6.134033203E-3,-4.443603516E0
3.397277832E0,-1.307388306E0,-1.785278320E-2,-4.496856689E0
3.399749756E0,-1.318038940E0,-3.062438965E-2,-4.550125122E0
3.402221680E0,-1.327621460E0,-4.127502441E-2,-4.602325439E0
3.404693603E0,-1.337219238E0,-4.873657227E-2,-4.654525757E0
3.407196045E0,-1.339340210E0,-5.087280273E-2,-4.710983276E0
3.409667969E0,-1.341476440E0,-5.619812012E-2,-4.765304565E0
3.412170410E0,-1.338287354E0,-5.938720703E-2,-4.819641113E0
3.414642334E0,-1.339340210E0,-5.726623535E-2,-4.880355835E0
3.417114258E0,-1.340408325E0,-5.938720703E-2,-4.937881470E0
3.419616699E0,-1.341476440E0,-5.831909180E-2,-4.990081787E0
3.422088623E0,-1.338287354E0,-4.341125488E-2,-5.043334961E0
3.424591064E0,-1.340408325E0,-3.489685059E-2,-5.097671509E0
3.427062988E0,-1.340408325E0,-3.382873535E-2,-5.149871826E0
3.429534912E0,-1.344665527E0,-3.808593750E-2,-5.201004028E0
3.432037353E0,-1.347869873E0,-5.194091797E-2,-5.254257202E0
3.434509277E0,-1.349990845E0,-6.684875488E-2,-5.300064087E0
3.437011719E0,-1.356384277E0,-8.389282227E-2,-5.349075317E0
3.439483642E0,-1.361709595E0,-1.094512939E-1,-5.391677856E0
3.441955566E0,-1.369171143E0,-1.424865723E-1,-5.428970337E0
3.444427490E0,-1.374496460E0,-1.776275635E-1,-5.466247559E0
3.446929931E0,-1.383026123E0,-2.191772461E-1,-5.505661011E0
3.449401855E0,-1.395797729E0,-2.692413330E-1,-5.539749146E0
3.451904297E0,-1.410720825E0,-3.139953613E-1,-5.572784424E0
3.454376221E0,-1.424560547E0,-3.640594482E-1,-5.600479126E0
3.456848144E0,-1.440551758E0,-4.141235352E-1,-5.628173828E0
3.459350586E0,-1.457595825E0,-4.641876221E-1,-5.655868530E0
3.461822510E0,-1.478897095E0,-5.046691895E-1,-5.679306030E0
3.464324951E0,-1.497009277E0,-5.451507568E-1,-5.701675415E0
3.466796875E0,-1.514053345E0,-5.909576416E-1,-5.718719482E0
3.469268799E0,-1.532165527E0,-6.293029785E-1,-5.735763550E0
3.471771240E0,-1.556655884E0,-6.687164307E-1,-5.750671387E0
3.474243164E0,-1.581161499E0,-7.038726807E-1,-5.766662598E0
3.476715088E0,-1.603530884E0,-7.315673828E-1,-5.779434204E0
3.479217529E0,-1.631225586E0,-7.677917480E-1,-5.794357300E0
3.481689453E0,-1.657852173E0,-8.082733154E-1,-5.807144165E0
3.484191894E0,-1.688751221E0,-8.359680176E-1,-5.822052002E0
3.486663818E0,-1.720703125E0,-8.594055176E-1,-5.832702637E0
3.489135742E0,-1.752670288E0,-8.796386719E-1,-5.845489502E0
3.491638183E0,-1.779296875E0,-9.062805176E-1,-5.858276367E0
3.494110107E0,-1.814453125E0,-9.307708740E-1,-5.872116089E0
3.496582031E0,-1.846405029E0,-9.510192871E-1,-5.881698608E0
3.499084473E0,-1.880493164E0,-9.819030762E-1,-5.895553589E0
3.501556396E0,-1.914581299E0,-1.008544922E0,-5.907272339E0
3.504058838E0,-1.945480347E0,-1.033035278E0,-5.915786743E0
3.506530762E0,-1.973175049E0,-1.062866211E0,-5.921127319E0
3.509002685E0,-1.996612549E0,-1.084167480E0,-5.928573608E0
3.511505127E0,-2.020050049E0,-1.106552124E0,-5.930709839E0
3.513977051E0,-2.034957886E0,-1.127853394E0,-5.933898926E0
3.516448974E0,-2.052001953E0,-1.145965576E0,-5.931777954E0
3.518951416E0,-2.065856934E0,-1.167266846E0,-5.932830811E0
3.521423340E0,-2.076507568E0,-1.185379028E0,-5.934967041E0
3.523925781E0,-2.089294434E0,-1.200286865E0,-5.934967041E0
3.526397705E0,-2.097808838E0,-1.205612183E0,-5.926452637E0
3.528869629E0,-2.102081299E0,-1.204544067E0,-5.916854858E0
3.531372070E0,-2.102081299E0,-1.203491211E0,-5.905136108E0
3.533843994E0,-2.097808838E0,-1.201354980E0,-5.892364502E0
3.536315918E0,-2.095687866E0,-1.202423096E0,-5.872116089E0
3.538818359E0,-2.093551636E0,-1.194961548E0,-5.852935791E0
3.541290283E0,-2.088226318E0,-1.181106567E0,-5.835891724E0
3.543792724E0,-2.080764771E0,-1.170455933E0,-5.808197021E0
3.546264648E0,-2.073318481E0,-1.150222778E0,-5.780502319E0
3.548736572E0,-2.062652588E0,-1.124649048E0,-5.755996704E0
3.551239014E0,-2.050949097E0,-1.092697144E0,-5.733627319E0
3.553710937E0,-2.042419434E0,-1.060745239E0,-5.708068848E0
3.556182861E0,-2.027511597E0,-1.029846191E0,-5.685699463E0
3.558685303E0,-2.012588501E0,-1.007476807E0,-5.665451050E0
3.561157226E0,-2.004074097E0,-9.851074219E-1,-5.642013550E0
3.563659668E0,-1.991287231E0,-9.574127197E-1,-5.624969482E0
3.566131592E0,-1.985961914E0,-9.393005371E-1,-5.611129761E0
3.568603515E0,-1.980636597E0,-9.329071045E-1,-5.601547241E0
3.571105957E0,-1.977432251E0,-9.307708740E-1,-5.594085693E0
3.573577881E0,-1.976379395E0,-9.297180176E-1,-5.597274780E0
3.576049805E0,-1.979568481E0,-9.371643066E-1,-5.605804443E0
3.578552246E0,-1.987030029E0,-9.520874023E-1,-5.617523193E0
3.581024170E0,-1.994476318E0,-9.669952393E-1,-5.634567261E0
3.583526611E0,-2.007263184E0,-9.893646240E-1,-5.655868530E0
3.585998535E0,-2.020050049E0,-1.020263672E0,-5.680374146E0
3.588470459E0,-2.030700684E0,-1.046890259E0,-5.704864502E0
3.590972900E0,-2.042419434E0,-1.072463989E0,-5.733627319E0
3.593444824E0,-2.057327271E0,-1.098022461E0,-5.764526367E0
3.595916748E0,-2.072250366E0,-1.126785278E0,-5.790100098E0
3.598419189E0,-2.086090088E0,-1.151290894E0,-5.820983887E0
3.600891113E0,-2.098876953E0,-1.174728394E0,-5.850814819E0
3.603393555E0,-2.109527588E0,-1.197097778E0,-5.885971069E0
3.605865478E0,-2.119125366E0,-1.220535278E0,-5.918991089E0
3.608337402E0,-2.126571655E0,-1.239700317E0,-5.958404541E0
3.610839844E0,-2.127639771E0,-1.255676270E0,-5.995681763E0
3.613311767E0,-2.129776001E0,-1.267395020E0,-6.031906128E0
3.615783691E0,-2.123382568E0,-1.278045654E0,-6.069198608E0
3.618286133E0,-2.118057251E0,-1.280181885E0,-6.104339600E0
3.620758056E0,-2.107406616E0,-1.272720337E0,-6.144821167E0
3.623260498E0,-2.096755981E0,-1.252487183E0,-6.193832397E0
3.625732422E0,-2.083969116E0,-1.225860596E0,-6.242828369E0
3.628204346E0,-2.066925049E0,-1.185379028E0,-6.299285889E0
3.630706787E0,-2.046676636E0,-1.135314941E0,-6.364273071E0
3.633178711E0,-2.025375366E0,-1.076721191E0,-6.427124023E0
3.635650635E0,-1.999816895E0,-1.011734009E0,-6.497421265E0
3.638153076E0,-1.969985962E0,-9.360961914E-1,-6.571990967E0
3.640625000E0,-1.939086914E0,-8.572692871E-1,-6.646560669E0
3.643127441E0,-1.904998779E0,-7.741851807E-1,-6.721130371E0
3.645599365E0,-1.866653442E0,-6.910858154E-1,-6.802093506E0
3.648071289E0,-1.830429077E0,-6.133270264E-1,-6.878799438E0
3.650573730E0,-1.791015625E0,-5.334320068E-1,-6.956558228E0
3.653045654E0,-1.749465942E0,-4.546051025E-1,-7.038589478E0
3.655517578E0,-1.707931519E0,-3.800354004E-1,-7.121673584E0
3.658020019E0,-1.663192749E0,-3.086700439E-1,-7.203704834E0
3.660491943E0,-1.620574951E0,-2.458190918E-1,-7.285720825E0
3.662994385E0,-1.576904297E0,-1.893463135E-1,-7.364547729E0
3.665466308E0,-1.537490845E0,-1.392822266E-1,-7.445510864E0
3.667938232E0,-1.498077393E0,-9.986877441E-2,-7.527542114E0
3.670440674E0,-1.456527710E0,-6.684875488E-2,-7.603179932E0
3.672912598E0,-1.418182373E0,-3.701782227E-2,-7.671356201E0
3.675384521E0,-1.377700806E0,-1.358032227E-2,-7.732070923E0
3.677886963E0,-1.332946777E0,1.327514648E-3,-7.788528442E0
3.680358887E0,-1.283950806E0,9.857177734E-3,-7.838592529E0
3.682861328E0,-1.238143921E0,1.730346680E-2,-7.884399414E0
3.685333252E0,-1.188079834E0,1.411437988E-2,-7.925949097E0
3.687805176E0,-1.139068604E0,2.395629883E-3,-7.956848145E0
3.690307617E0,-1.090072632E0,-6.134033203E-3,-7.987731934E0
3.692779541E0,-1.040008545E0,-3.997802734E-3,-8.014358521E0
3.695251465E0,-9.846191406E-1,-3.997802734E-3,-8.034606934E0
3.697753906E0,-9.324188232E-1,-8.255004883E-3,-8.050582886E0
3.700225830E0,-8.834075928E-1,-1.571655273E-2,-8.047393799E0
3.702728271E0,-8.365478516E-1,-3.701782227E-2,-8.049514771E0
3.705200195E0,-7.907409668E-1,-4.234313965E-2,-8.072952271E0
3.707672119E0,-7.481231689E-1,-2.210998535E-2,-8.092132568E0
3.710174560E0,-7.097778320E-1,1.625061035E-2,-8.107040405E0
3.712646484E0,-6.735534668E-1,5.245971680E-2,-8.116622925E0
3.715118408E0,-6.383972168E-1,8.547973633E-2,-8.127288818E0
3.717620849E0,-6.075134277E-1,1.004028320E-1,-8.141128540E0
3.720092773E0,-5.787506104E-1,1.078491211E-1,-8.154983521E0
3.722595215E0,-5.574340820E-1,1.004028320E-1,-8.166702271E0
3.725067139E0,-5.286865234E-1,8.122253418E-2,-8.176284790E0
3.727539062E0,-5.073699951E-1,5.566406250E-2,-8.184814453E0
3.730041504E0,-4.892578125E-1,1.943969727E-2,-8.186935425E0
3.732513428E0,-4.700927734E-1,-3.062438965E-2,-8.186935425E0
3.735015869E0,-4.509124756E-1,-8.389282227E-2,-8.179473877E0
3.737487793E0,-4.391937256E-1,-1.435394287E-1,-8.167770386E0
3.739959717E0,-4.264068604E-1,-2.138519287E-1,-8.157104492E0
3.742462158E0,-4.157562256E-1,-2.862854004E-1,-8.140060425E0
3.744934082E0,-4.083099365E-1,-3.619232178E-1,-8.117691040E0
3.747406006E0,-4.029846191E-1,-4.364929199E-1,-8.093200684E0
3.749908447E0,-4.008483887E-1,-5.206451416E-1,-8.062301636E0
3.752380371E0,-4.008483887E-1,-6.048126221E-1,-8.025024414E0
3.754882812E0,-4.019165039E-1,-6.868286133E-1,-7.988800049E0
3.757354736E0,-4.008483887E-1,-7.709808350E-1,-7.948318481E0
3.759826660E0,-3.976440430E-1,-8.519439697E-1,-7.904647827E0
3.762329101E0,-3.944549561E-1,-9.222564697E-1,-7.864166260E0
3.764801025E0,-3.912658691E-1,-9.978942871E-1,-7.820480347E0
3.767272949E0,-3.784790039E-1,-1.073516846E0,-7.776809692E0
3.769775390E0,-3.646240234E-1,-1.150222778E0,-7.729934692E0
3.772247314E0,-3.507843018E-1,-1.217330933E0,-7.685195923E0
3.774749756E0,-3.337402344E-1,-1.283386230E0,-7.640457153E0
3.777221680E0,-3.166961670E-1,-1.346237183E0,-7.597839355E0
3.779693603E0,-3.049774170E-1,-1.399490356E0,-7.557373047E0
3.782196045E0,-2.868652344E-1,-1.445297241E0,-7.524337769E0
3.784667969E0,-2.751464844E-1,-1.474060059E0,-7.498779297E0
3.787139892E0,-2.581024170E-1,-1.494308472E0,-7.465759277E0
3.789642334E0,-2.368011475E-1,-1.498565674E0,-7.443389893E0
3.792114258E0,-2.208251953E-1,-1.494308472E0,-7.423141479E0
3.794616699E0,-2.027130127E-1,-1.485778809E0,-7.406097412E0
3.797088623E0,-1.846008301E-1,-1.468734741E0,-7.384796143E0
3.799560547E0,-1.664886475E-1,-1.451690674E0,-7.364547729E0
3.802062988E0,-1.430511475E-1,-1.429321289E0,-7.338989258E0
3.804534912E0,-1.249389648E-1,-1.401626587E0,-7.309158325E0
3.807006836E0,-1.068420410E-1,-1.372863770E0,-7.277206421E0
3.809509277E0,-8.872985840E-2,-1.344100952E0,-7.242050171E0
3.811981201E0,-7.701110840E-2,-1.311080933E0,-7.206893921E0
3.814483642E0,-6.636047363E-2,-1.280181885E0,-7.165344238E0
3.816955566E0,-5.036926270E-2,-1.249298096E0,-7.116348267E0
3.819427490E0,-3.652954102E-2,-1.217330933E0,-7.068405151E0
3.821929931E0,-1.841735840E-2,-1.180053711E0,-7.014083862E0
3.824401855E0,-6.698608398E-3,-1.143829346E0,-6.954421997E0
3.826873779E0,6.088256836E-3,-1.120391846E0,-6.887313843E0
3.829376221E0,1.885986328E-2,-1.096954346E0,-6.819137573E0
3.831848144E0,3.164672852E-2,-1.074584961E0,-6.748825073E0
3.834350586E0,4.017639160E-2,-1.056472778E0,-6.678527832E0
3.836822510E0,4.869079590E-2,-1.033035278E0,-6.607147217E0
3.839294433E0,5.828857422E-2,-1.013870239E0,-6.531509399E0
3.841796875E0,6.573486328E-2,-9.925689697E-1,-6.451629639E0
3.844268799E0,7.212829590E-2,-9.712524414E-1,-6.374923706E0
3.846740723E0,7.745361328E-2,-9.510192871E-1,-6.295028687E0
3.849243164E0,8.065795898E-2,-9.414367676E-1,-6.217269897E0
3.851715088E0,8.065795898E-2,-9.435577393E-1,-6.133102417E0
3.854217529E0,7.958984375E-2,-9.542083740E-1,-6.051086426E0
3.856689453E0,8.065795898E-2,-9.606018066E-1,-5.981842041E0
3.859161377E0,8.277893066E-2,-9.584808350E-1,-5.909408569E0
3.861663818E0,7.958984375E-2,-9.638061523E-1,-5.832702637E0
3.864135742E0,7.533264160E-2,-9.936218262E-1,-5.755996704E0
3.866607666E0,7.533264160E-2,-1.033035278E0,-5.681442261E0
3.869110107E0,7.212829590E-2,-1.085235596E0,-5.603668213E0
3.871582031E0,6.787109375E-2,-1.141693115E0,-5.529098511E0
3.874084473E0,6.361389160E-2,-1.205612183E0,-5.452407837E0
3.876556396E0,5.722045898E-2,-1.274856567E0,-5.371444702E0
3.879028320E0,5.615234375E-2,-1.347290039E0,-5.284088135E0
3.881530762E0,4.550170898E-2,-1.418670654E0,-5.207397461E0
3.884002685E0,3.590393066E-2,-1.471923828E0,-5.140274048E0
3.886474609E0,3.164672852E-2,-1.499633789E0,-5.072097778E0
3.888977051E0,2.206420898E-2,-1.522003174E0,-5.007125854E0
3.891448974E0,7.156372070E-3,-1.535842896E0,-4.948532104E0
3.893951416E0,-3.509521484E-3,-1.532653809E0,-4.894210815E0
3.896423340E0,-7.766723633E-3,-1.511352539E0,-4.843078613E0
3.898895264E0,-1.628112793E-2,-1.474060059E0,-4.794067383E0
3.901397705E0,-2.267456055E-2,-1.428253174E0,-4.748260498E0
3.903869629E0,-2.799987793E-2,-1.357940674E0,-4.705657959E0
3.906341553E0,-3.227233887E-2,-1.273788452E0,-4.669433594E0
3.908843994E0,-3.332519531E-2,-1.181106567E0,-4.638534546E0
3.911315918E0,-3.227233887E-2,-1.085235596E0,-4.614044189E0
3.913818359E0,-3.332519531E-2,-9.882965088E-1,-4.595932007E0
3.916290283E0,-3.227233887E-2,-8.881683350E-1,-4.590606689E0
3.918762207E0,-2.906799316E-2,-7.880249023E-1,-4.585281372E0
3.921264648E0,-2.906799316E-2,-6.996154785E-1,-4.590606689E0
3.923736572E0,-2.374267578E-2,-6.314392090E-1,-4.605514526E0
3.926208496E0,-1.841735840E-2,-5.845642090E-1,-4.625762939E0
3.928710937E0,-1.416015625E-2,-5.600585938E-1,-4.641738892E0
3.931182861E0,-5.630493164E-3,-5.696563721E-1,-4.658782959E0
3.933685303E0,7.629394531E-4,-6.026763916E-1,-4.664108276E0
3.936157226E0,1.353454590E-2,-6.484832764E-1,-4.659851074E0
3.938629150E0,2.632141113E-2,-7.017517090E-1,-4.643875122E0
3.941131592E0,3.804016113E-2,-7.571411133E-1,-4.617233276E0
3.943603515E0,5.189514160E-2,-8.040161133E-1,-4.582077026E0
3.946075439E0,6.893920898E-2,-8.498229980E-1,-4.544799805E0
3.948577881E0,7.745361328E-2,-8.860321045E-1,-4.497924805E0
3.951049805E0,8.810424805E-2,-9.137268066E-1,-4.443603516E0
3.953552246E0,1.008911133E-1,-9.233245850E-1,-4.387145996E0
3.956024170E0,1.051483154E-1,-9.211883545E-1,-4.330673218E0
3.958496094E0,1.104736328E-1,-9.158630371E-1,-4.265701294E0
3.960998535E0,1.157989502E-1,-9.062805176E-1,-4.191131592E0
3.963470459E0,1.200714111E-1,-8.956298828E-1,-4.117630005E0
3.965942383E0,1.221923828E-1,-8.647308350E-1,-4.047317505E0
3.968444824E0,1.307220459E-1,-8.040161133E-1,-3.972747803E0
3.970916748E0,1.413726807E-1,-7.305145264E-1,-3.896057129E0
3.973419189E0,1.466979980E-1,-6.612701416E-1,-3.817230225E0
3.975891113E0,1.552276611E-1,-5.941467285E-1,-3.738388062E0
3.978363037E0,1.626739502E-1,-5.249176025E-1,-3.661697388E0
3.980865478E0,1.658782959E-1,-4.386291504E-1,-3.583923340E0
3.983337402E0,1.765289307E-1,-3.523406982E-1,-3.515747070E0
3.985809326E0,1.903686523E-1,-2.692413330E-1,-3.451843262E0
3.988311767E0,2.031555176E-1,-1.893463135E-1,-3.388992310E0
3.990783691E0,2.148742676E-1,-1.073303223E-1,-3.339981079E0
3.993286133E0,2.276611328E-1,-2.955627441E-2,-3.302703857E0
3.995758056E0,2.425689697E-1,3.861999512E-2,-3.269683838E0
3.998229980E0,2.542877197E-1,9.294128418E-2,-3.238784790E0
4.000732422E0,2.681427002E-1,1.334228516E-1,-3.208953857E0
4.003204346E0,2.830505371E-1,1.717681885E-1,-3.185516357E0
4.005676269E0,2.990264893E-1,1.930847168E-1,-3.162078857E0
4.008178711E0,3.075561523E-1,1.973419189E-1,-3.134384155E0
4.010650635E0,3.128814697E-1,1.920166016E-1,-3.109893799E0
4.013153076E0,3.192749023E-1,1.707000732E-1,-3.083251953E0
4.015625000E0,3.267211914E-1,1.280975342E-1,-3.050231934E0
4.018096924E0,3.309936523E-1,8.015441895E-2,-3.003356934E0
4.020599365E0,3.363189697E-1,2.902221680E-2,-2.951156616E0
4.023071289E0,3.416442871E-1,-1.785278320E-2,-2.889373779E0
4.025543213E0,3.437652588E-1,-6.152343750E-2,-2.823333740E0
4.028045654E0,3.448333740E-1,-1.073303223E-1,-2.757278442E0
4.030517578E0,3.448333740E-1,-1.435394287E-1,-2.684844971E0
4.033020019E0,3.469696045E-1,-1.755065918E-1,-2.609207153E0
4.035491943E0,3.491058350E-1,-1.989440918E-1,-2.531448364E0
4.037963867E0,3.469696045E-1,-2.202453613E-1,-2.459014893E0
4.040466308E0,3.459014893E-1,-2.394256592E-1,-2.379119873E0
4.042938232E0,3.427124023E-1,-2.585906982E-1,-2.302413940E0
4.045410156E0,3.373870850E-1,-2.703094482E-1,-2.226776123E0
4.047912598E0,3.373870850E-1,-2.703094482E-1,-2.154342651E0
4.050384521E0,3.384399414E-1,-2.681884766E-1,-2.080841064E0
4.052886963E0,3.352508545E-1,-2.671203613E-1,-2.009475708E0
4.055358887E0,3.373870850E-1,-2.607269287E-1,-1.942352295E0
4.057830810E0,3.395080566E-1,-2.490081787E-1,-1.879501343E0
4.060333252E0,3.437652588E-1,-2.341003418E-1,-1.824111938E0
4.062805176E0,3.459014893E-1,-2.063903809E-1,-1.769790649E0
4.065277099E0,3.480377197E-1,-1.733703613E-1,-1.727172852E0
4.067779541E0,3.554840088E-1,-1.414184570E-1,-1.690948486E0
4.070251465E0,3.661499023E-1,-9.986877441E-2,-1.664321899E0
4.072753906E0,3.757324219E-1,-5.299377441E-2,-1.635559082E0
4.075225830E0,3.831939697E-1,-1.145935059E-2,-1.617446899E0
4.077697754E0,3.948974609E-1,3.222656250E-2,-1.600402832E0
4.080200195E0,4.023590088E-1,8.229064941E-2,-1.586563110E0
4.082672119E0,4.098205566E-1,1.270294189E-1,-1.575912476E0
4.085174560E0,4.194030762E-1,1.739044189E-1,-1.566314697E0
4.087646484E0,4.226074219E-1,2.218322754E-1,-1.559921265E0
4.090118408E0,4.247283936E-1,2.687072754E-1,-1.554595947E0
4.092620849E0,4.332580566E-1,3.113250732E-1,-1.547149658E0
4.095092773E0,4.375152588E-1,3.560638428E-1,-1.543945312E0
4.097564697E0,4.396514893E-1,3.901519775E-1,-1.542877197E0
4.100067139E0,4.417724609E-1,4.199829102E-1,-1.538619995E0
4.102539062E0,4.439086914E-1,4.572601318E-1,-1.531158447E0
4.105041504E0,4.470977783E-1,4.902801514E-1,-1.522644043E0
4.107513428E0,4.492340088E-1,5.158538818E-1,-1.510925293E0
4.109985351E0,4.492340088E-1,5.414123535E-1,-1.506668091E0
4.112487793E0,4.492340088E-1,5.648498535E-1,-1.497070312E0
4.114959717E0,4.481658936E-1,5.850982666E-1,-1.487487793E0
4.117431640E0,4.470977783E-1,6.021423340E-1,-1.475769043E0
4.119934082E0,4.428405762E-1,6.191864014E-1,-1.465118408E0
4.122406006E0,4.417724609E-1,6.362304688E-1,-1.456604004E0
4.124908447E0,4.353790283E-1,6.500701904E-1,-1.447006226E0
4.127380371E0,4.236602783E-1,6.639251709E-1,-1.436355591E0
4.129852295E0,4.204711914E-1,6.756439209E-1,-1.428894043E0
4.132354736E0,4.098205566E-1,6.831054688E-1,-1.423568726E0
4.134826660E0,3.991699219E-1,6.926879883E-1,-1.415054321E0
4.137298584E0,3.885192871E-1,7.033386230E-1,-1.409729004E0
4.139801025E0,3.810577393E-1,7.171936035E-1,-1.407592773E0
4.142272949E0,3.768005371E-1,7.246398926E-1,-1.407592773E0
4.144775390E0,3.682708740E-1,7.342376709E-1,-1.407592773E0
4.147247314E0,3.608093262E-1,7.512817383E-1,-1.407592773E0
4.149719238E0,3.491058350E-1,7.619323730E-1,-1.409729004E0
4.152221680E0,3.416442871E-1,7.779083252E-1,-1.416122437E0
4.154693603E0,3.373870850E-1,7.832336426E-1,-1.422515869E0
4.157165527E0,3.235321045E-1,7.885589600E-1,-1.426773071E0
4.159667969E0,3.064880371E-1,7.960205078E-1,-1.435287476E0
4.162139892E0,2.894439697E-1,7.992095947E-1,-1.441680908E0
4.164611816E0,2.723999023E-1,7.981414795E-1,-1.437423706E0
4.167114258E0,2.574920654E-1,8.045349121E-1,-1.437423706E0
4.169586181E0,2.351226807E-1,8.066711426E-1,-1.429962158E0
4.172088623E0,2.148742676E-1,8.162536621E-1,-1.417175293E0
4.174560547E0,2.010345459E-1,8.279724121E-1,-1.400131226E0
4.177032471E0,2.106170654E-1,8.609924316E-1,-1.382034302E0
4.179534912E0,1.946411133E-1,9.153289795E-1,-1.373504639E0
4.182006836E0,1.541595459E-1,9.632568359E-1,-1.359664917E0
4.184509277E0,1.285858154E-1,9.717864990E-1,-1.343673706E0
4.186981201E0,9.556579590E-2,9.877624512E-1,-1.325576782E0
4.189453125E0,5.828857422E-2,1.031433105E0,-1.312789917E0
4.191955566E0,2.632141113E-2,1.071914673E0,-1.302139282E0
4.194427490E0,-1.202392578E-2,1.106002808E0,-1.290420532E0
4.196899414E0,-5.889892578E-2,1.137969971E0,-1.280822754E0
4.199401855E0,-1.015014648E-1,1.169921875E0,-1.268051147E0
4.201873779E0,-1.441192627E-1,1.206146240E0,-1.255264282E0
4.204376221E0,-1.846008301E-1,1.243423462E0,-1.246734619E0
4.206848144E0,-2.208251953E-1,1.270065308E0,-1.235015869E0
4.209320068E0,-2.538452148E-1,1.291366577E0,-1.220108032E0
4.211822510E0,-2.857971191E-1,1.312667847E0,-1.203063965E0
4.214294433E0,-3.145599365E-1,1.331848145E0,-1.182830811E0
4.216766357E0,-3.379974365E-1,1.345687866E0,-1.160446167E0
4.219268799E0,-3.582305908E-1,1.353149414E0,-1.138076782E0
4.221740723E0,-3.795471191E-1,1.359542847E0,-1.116775513E0
4.224243164E0,-3.944549561E-1,1.365936279E0,-1.095474243E0
4.226715088E0,-4.104309082E-1,1.363800049E0,-1.075225830E0
4.229187012E0,-4.296112061E-1,1.361679077E0,-1.059249878E0
4.231689453E0,-4.519805908E-1,1.357406616E0,-1.035812378E0
4.234161377E0,-4.700927734E-1,1.346755981E0,-1.021972656E0
4.236633301E0,-4.924621582E-1,1.345687866E0,-1.007049561E0
4.239135742E0,-5.169677734E-1,1.346755981E0,-9.857482910E-1
4.241607666E0,-5.350646973E-1,1.349960327E0,-9.697723389E-1
4.244110107E0,-5.563812256E-1,1.356338501E0,-9.516601562E-1
4.246582031E0,-5.830078125E-1,1.367004395E0,-9.346160889E-1
4.249053955E0,-6.075134277E-1,1.381912231E0,-9.165039062E-1
4.251556396E0,-6.320037842E-1,1.393630981E0,-8.952026367E-1
4.254028320E0,-6.533203125E-1,1.407485962E0,-8.781585693E-1
4.256500244E0,-6.799468994E-1,1.416000366E0,-8.579254150E-1
4.259002685E0,-7.044525146E-1,1.428787231E0,-8.398132324E-1
4.261474609E0,-7.268218994E-1,1.430908203E0,-8.259582520E-1
4.263977051E0,-7.459869385E-1,1.433044434E0,-8.121185303E-1
4.266448974E0,-7.673034668E-1,1.426651001E0,-7.876129150E-1
4.268920898E0,-7.917938232E-1,1.400024414E0,-7.567138672E-1
4.271423340E0,-8.173675537E-1,1.376586914E0,-7.386016846E-1
4.273895264E0,-8.408050537E-1,1.367004395E0,-7.194366455E-1
4.276367187E0,-8.578491211E-1,1.369125366E0,-6.949310303E-1
4.278869629E0,-8.802185059E-1,1.364868164E0,-6.683044434E-1
4.281341553E0,-9.015197754E-1,1.368057251E0,-6.395416260E-1
4.283843994E0,-9.196319580E-1,1.370193481E0,-6.086425781E-1
4.286315918E0,-9.451904297E-1,1.373382568E0,-5.734863281E-1
4.288787842E0,-9.696960449E-1,1.377655029E0,-5.383453369E-1
4.291290283E0,-9.899444580E-1,1.387237549E0,-4.967956543E-1
4.293762207E0,-1.015502930E0,1.396820068E0,-4.584503174E-1
4.296234131E0,-1.037872314E0,1.409606934E0,-4.190368652E-1
4.298736572E0,-1.061309814E0,1.428787231E0,-3.721618652E-1
4.301208496E0,-1.079421997E0,1.452224731E0,-3.295440674E-1
4.303710937E0,-1.092208862E0,1.474594116E0,-2.794799805E-1
4.306182861E0,-1.107116699E0,1.499084473E0,-2.262115479E-1
4.308654785E0,-1.118835449E0,1.521469116E0,-1.654968262E-1
4.311157226E0,-1.130554199E0,1.548095703E0,-9.838867188E-2
4.313629150E0,-1.139068604E0,1.588577271E0,-3.553771973E-2
4.316101074E0,-1.155059814E0,1.634384155E0,4.542541504E-2
4.318603515E0,-1.172103882E0,1.691909790E0,1.423645020E-1
4.321075439E0,-1.184875488E0,1.740905762E0,2.467651367E-1
4.323577881E0,-1.194473267E0,1.795242310E0,3.404998779E-1
4.326049805E0,-1.202987671E0,1.861282349E0,4.203948975E-1
4.328521728E0,-1.210449219E0,1.941177368E0,5.002899170E-1
4.331024170E0,-1.216842651E0,2.025329590E0,5.780639648E-1
4.333496094E0,-1.226425171E0,2.104156494E0,6.547546387E-1
4.335968017E0,-1.239212036E0,2.164886475E0,7.346496582E-1
4.338470459E0,-1.256256104E0,2.219207764E0,8.145446777E-1
4.340942383E0,-1.279693604E0,2.274597168E0,8.976440430E-1
4.343444824E0,-1.303131104E0,2.323608398E0,9.871215820E-1
4.345916748E0,-1.325500488E0,2.376876831E0,1.078735352E0
4.348388672E0,-1.343612671E0,2.440780640E0,1.176742554E0
4.350891113E0,-1.359588623E0,2.505767822E0,1.274734497E0
4.353363037E0,-1.373428345E0,2.567550659E0,1.384460449E0
4.355834961E0,-1.386215210E0,2.631469727E0,1.505905151E0
4.358337402E0,-1.395797729E0,2.684738159E0,1.631607056E0
4.360809326E0,-1.409652710E0,2.732666016E0,1.762634277E0
4.363311767E0,-1.425628662E0,2.763565063E0,1.897918701E0
4.365783691E0,-1.441604614E0,2.801910400E0,2.034271240E0
4.368255615E0,-1.452270508E0,2.848785400E0,2.178085327E0
4.370758056E0,-1.475692749E0,2.893524170E0,2.316574097E0
4.373229980E0,-1.494873047E0,2.944656372E0,2.463577271E0
4.375701904E0,-1.515121460E0,2.993652344E0,2.619110107E0
4.378204346E0,-1.539611816E0,3.050109863E0,2.773574829E0
4.380676269E0,-1.569442749E0,3.107635498E0,2.936553955E0
4.383178711E0,-1.598205566E0,3.161972046E0,3.098480225E0
4.385650635E0,-1.634429932E0,3.216293335E0,3.255065918E0
4.388122558E0,-1.674896240E0,3.275955200E0,3.409530640E0
4.390625000E0,-1.715377808E0,3.332412720E0,3.566131592E0
4.393096924E0,-1.754791260E0,3.377151489E0,3.721649170E0
4.395599365E0,-1.799545288E0,3.419769287E0,3.875045776E0
4.398071289E0,-1.843215942E0,3.449584961E0,4.031646729E0
4.400543213E0,-1.882629395E0,3.476226807E0,4.190368652E0
4.403045654E0,-1.919921875E0,3.490066528E0,4.345901489E0
4.405517578E0,-1.961456299E0,3.500717163E0,4.501434326E0
4.407989502E0,-2.003005981E0,3.503921509E0,4.656951904E0
4.410491943E0,-2.041351318E0,3.504989624E0,4.812484741E0
4.412963867E0,-2.081832886E0,3.501785278E0,4.962692261E0
4.415466308E0,-2.114852905E0,3.492202759E0,5.107559204E0
4.417938232E0,-2.146820068E0,3.482620239E0,5.253509521E0
4.420410156E0,-2.179840088E0,3.460235596E0,5.402633667E0
4.422912598E0,-2.207534790E0,3.438934326E0,5.547515869E0
4.425384521E0,-2.230972290E0,3.416564941E0,5.694519043E0
4.427856445E0,-2.251205444E0,3.400588989E0,5.845794678E0
4.430358887E0,-2.271453857E0,3.393127441E0,5.997055054E0
4.432830810E0,-2.290634155E0,3.395263672E0,6.151519775E0
4.435333252E0,-2.315124512E0,3.405914307E0,6.305984497E0
4.437805176E0,-2.340698242E0,3.424026489E0,6.461517334E0
4.440277099E0,-2.369461060E0,3.447463989E0,6.622375488E0
4.442779541E0,-2.407806396E0,3.473022461E0,6.782165527E0
4.445251465E0,-2.449356079E0,3.498596191E0,6.949401855E0
4.447723389E0,-2.491958618E0,3.530548096E0,7.113449097E0
4.450225830E0,-2.532440186E0,3.553985596E0,7.278564453E0
4.452697754E0,-2.577178955E0,3.560379028E0,7.452209473E0
4.455200195E0,-2.626190186E0,3.560379028E0,7.626907349E0
4.457672119E0,-2.673049927E0,3.547592163E0,7.804809570E0
4.460144043E0,-2.720993042E0,3.523086548E0,7.983779907E0
4.462646484E0,-2.779586792E0,3.478347778E0,8.168060303E0
4.465118408E0,-2.842437744E0,3.420822144E0,8.357681274E0
4.467590332E0,-2.906356812E0,3.349456787E0,8.545166016E0
4.470092773E0,-2.974533081E0,3.264236450E0,8.735855103E0
4.472564697E0,-3.040573120E0,3.169433594E0,8.930801392E0
4.475067139E0,-3.105560303E0,3.075683594E0,9.128936768E0
4.477539062E0,-3.167343140E0,2.971282959E0,9.324951172E0
4.480010986E0,-3.226989746E0,2.863693237E0,9.527343750E0
4.482513428E0,-3.280258179E0,2.742248535E0,9.731872559E0
4.484985351E0,-3.333526611E0,2.617614746E0,9.939605713E0
4.487457275E0,-3.376129150E0,2.487655640E0,1.015052795E1
4.489959717E0,-3.405960083E0,2.357696533E0,1.035931396E1
4.492431640E0,-3.427261353E0,2.222412109E0,1.056384277E1
4.494934082E0,-3.441116333E0,2.069000244E0,1.077476501E1
4.497406006E0,-3.448562622E0,1.900695801E0,1.098568726E1
4.499908447E0,-3.436843872E0,1.725997925E0,1.119448853E1
4.502380371E0,-3.411285400E0,1.560882568E0,1.141073608E1
4.504852295E0,-3.371871948E0,1.397888184E0,1.162272644E1
4.507354736E0,-3.319671631E0,1.238098145E0,1.183683777E1
4.509826660E0,-3.255752563E0,1.084701538E0,1.204669189E1
4.512298584E0,-3.171600342E0,9.419555664E-1,1.225228882E1
4.514801025E0,-3.083190918E0,8.045349121E-1,1.245362854E1
4.517272949E0,-2.979858398E0,6.788330078E-1,1.265176392E1
4.519744873E0,-2.870132446E0,5.616607666E-1,1.284350586E1
4.522247314E0,-2.754013062E0,4.519348145E-1,1.303526306E1
4.524719238E0,-2.627243042E0,3.656463623E-1,1.322700500E1
4.527221680E0,-2.495162964E0,3.017272949E-1,1.341876221E1
4.529693603E0,-2.371582031E0,2.516632080E-1,1.360304260E1
4.532165527E0,-2.244827271E0,2.218322754E-1,1.378947449E1
4.534667969E0,-2.113800049E0,2.175750732E-1,1.397802734E1
4.537139892E0,-1.990219116E0,2.186431885E-1,1.416870117E1
4.539611816E0,-1.867721558E0,2.282257080E-1,1.436257935E1
4.542114258E0,-1.745208740E0,2.346191406E-1,1.456178284E1
4.544586181E0,-1.619506836E0,2.282257080E-1,1.475991821E1
4.547088623E0,-1.499130249E0,2.133178711E-1,1.495912170E1
4.549560547E0,-1.379821777E0,1.792297363E-1,1.515406799E1
4.552032471E0,-1.256256104E0,1.217041016E-1,1.534901428E1
4.554534912E0,-1.140136719E0,4.499816895E-2,1.554075623E1
4.557006836E0,-1.022964478E0,-4.873657227E-2,1.572612000E1
4.559478760E0,-9.004516602E-1,-1.584625244E-1,1.591360474E1
4.561981201E0,-7.832794189E-1,-2.852325439E-1,1.609257507E1
4.564453125E0,-6.618347168E-1,-4.311676025E-1,1.626620483E1
4.566925049E0,-5.382690430E-1,-5.803070068E-1,1.643238831E1
4.569427490E0,-4.083099365E-1,-7.411651611E-1,1.659324646E1
4.571899414E0,-2.794036865E-1,-9.073486328E-1,1.673918152E1
4.574401855E0,-1.483764648E-1,-1.074584961E0,1.687767029E1
4.576873779E0,-1.309204102E-2,-1.253555298E0,1.700550842E1
4.579345703E0,1.275177002E-1,-1.434646606E0,1.711842346E1
4.581848144E0,2.702636719E-1,-1.616806030E0,1.721855164E1
4.584320068E0,4.130096436E-1,-1.794708252E0,1.730165100E1
4.586791992E0,5.600280762E-1,-1.964080811E0,1.736343384E1
4.589294433E0,7.144775391E-1,-2.118545532E0,1.741136169E1
4.591766357E0,8.700103760E-1,-2.248504639E0,1.744651794E1
4.594268799E0,1.023406982E0,-2.346511841E0,1.746569824E1
4.596740723E0,1.175750732E0,-2.415756226E0,1.746676636E1
4.599212646E0,1.323822021E0,-2.458358765E0,1.744758606E1
4.601715088E0,1.470825195E0,-2.472213745E0,1.741668701E1
4.604187012E0,1.606109619E0,-2.465820312E0,1.736982727E1
4.606658935E0,1.732879639E0,-2.427474976E0,1.730590820E1
4.609161377E0,1.858581543E0,-2.378463745E0,1.723666382E1
4.611633301E0,1.972564697E0,-2.309234619E0,1.715037537E1
4.614135742E0,2.080154419E0,-2.222946167E0,1.704492188E1
4.616607666E0,2.182418823E0,-2.129196167E0,1.692240906E1
4.619079590E0,2.270828247E0,-2.033325195E0,1.678924561E1
4.621582031E0,2.360321045E0,-1.943847656E0,1.664544678E1
4.624053955E0,2.444473267E0,-1.868209839E0,1.648884583E1
4.626556396E0,2.522232056E0,-1.810684204E0,1.631947327E1
4.629028320E0,2.598937988E0,-1.763809204E0,1.614476013E1
4.631500244E0,2.672439575E0,-1.737182617E0,1.596260071E1
4.634002685E0,2.741683960E0,-1.735046387E0,1.576660156E1
4.636474609E0,2.814117432E0,-1.754226685E0,1.555780029E1
4.638946533E0,2.886566162E0,-1.779785156E0,1.534049988E1
4.641448974E0,2.958999634E0,-1.817077637E0,1.511679077E1
4.643920898E0,3.030364990E0,-1.855422974E0,1.489201355E1
4.646392822E0,3.098541260E0,-1.885253906E0,1.465339661E1
4.648895264E0,3.163528442E0,-1.892715454E0,1.440412903E1
4.651367187E0,3.219985962E0,-1.876724243E0,1.415272522E1
4.653869629E0,3.276443481E0,-1.825592041E0,1.389492798E1
4.656341553E0,3.333969116E0,-1.742507935E0,1.363819885E1
4.658813476E0,3.379776001E0,-1.624267578E0,1.338360596E1
4.661315918E0,3.420257568E0,-1.484710693E0,1.312794495E1
4.663787842E0,3.454345703E0,-1.334518433E0,1.287333679E1
4.666290283E0,3.480972290E0,-1.175781250E0,1.262193298E1
4.668762207E0,3.499084473E0,-1.007476807E0,1.237692261E1
4.671234131E0,3.508666992E0,-8.444976807E-1,1.212872314E1
4.673736572E0,3.509735107E0,-6.910858154E-1,1.188157654E1
4.676208496E0,3.503341675E0,-5.451507568E-1,1.163549805E1
4.678680420E0,3.492691040E0,-4.162597656E-1,1.139476013E1
4.681182861E0,3.480972290E0,-3.065338135E-1,1.116040039E1
4.683654785E0,3.464996338E0,-2.234344482E-1,1.093136597E1
4.686157226E0,3.451141357E0,-1.616516113E-1,1.070339966E1
4.688629150E0,3.435165405E0,-1.179809570E-1,1.047969055E1
4.691101074E0,3.418121338E0,-9.028625488E-2,1.026770020E1
4.693603515E0,3.400009155E0,-7.003784180E-2,1.004933167E1
4.696075439E0,3.386169434E0,-6.259155273E-2,9.841598511E0
4.698547363E0,3.373382568E0,-6.898498535E-2,9.646652222E0
4.701049805E0,3.363800049E0,-7.963562012E-2,9.450653076E0
4.703521728E0,3.358474731E0,-9.986877441E-2,9.263153076E0
4.706024170E0,3.354202271E0,-1.190490723E-1,9.084197998E0
4.708496094E0,3.344619751E0,-1.478118896E-1,8.900970459E0
4.710968017E0,3.338226318E0,-1.744384766E-1,8.726272583E0
4.713470459E0,3.322250366E0,-2.021331787E-1,8.552627563E0
4.715942383E0,3.304138184E0,-2.074584961E-1,8.376861572E0
4.718414306E0,3.282836914E0,-1.957397461E-1,8.208541870E0
4.720916748E0,3.259399414E0,-1.701812744E-1,8.041305542E0
4.723388672E0,3.235961914E0,-1.392822266E-1,7.879379272E0
4.725891113E0,3.205078125E0,-9.773254395E-2,7.718521118E0
4.728363037E0,3.166717529E0,-4.447937012E-2,7.563003540E0
4.730834961E0,3.125183105E0,8.789062500E-3,7.409591675E0
4.733337402E0,3.078308105E0,6.098937988E-2,7.258331299E0
4.735809326E0,3.028244019E0,1.099853516E-1,7.104934692E0
4.738281250E0,2.972839355E0,1.557922363E-1,6.949401855E0
4.740783691E0,2.907867432E0,1.984100342E-1,6.797073364E0
4.743255615E0,2.843948364E0,2.378234863E-1,6.646865845E0
4.745758056E0,2.774703979E0,2.644500732E-1,6.492401123E0
4.748229980E0,2.701202393E0,2.793579102E-1,6.340072632E0
4.750701904E0,2.627700806E0,2.804260254E-1,6.183486938E0
4.753204346E0,2.550994873E0,2.676391602E-1,6.026885986E0
4.755676269E0,2.473236084E0,2.410125732E-1,5.870285034E0
4.758148193E0,2.398666382E0,2.005310059E-1,5.709442139E0
4.760650635E0,2.320907593E0,1.462097168E-1,5.544326782E0
4.763122558E0,2.250595093E0,7.803344727E-2,5.379211426E0
4.765625000E0,2.179229736E0,2.395629883E-3,5.210891724E0
4.768096924E0,2.111053467E0,-7.963562012E-2,5.040451050E0
4.770568848E0,2.054580688E0,-1.659240723E-1,4.866806030E0
4.773071289E0,1.997070312E0,-2.596588135E-1,4.689971924E0
4.775543213E0,1.945922852E0,-3.470153809E-1,4.504623413E0
4.778045654E0,1.901184082E0,-4.333038330E-1,4.317138672E0
4.780517578E0,1.857513428E0,-5.153198242E-1,4.128585815E0
4.782989502E0,1.811706543E0,-5.813751221E-1,3.931503296E0
4.785491943E0,1.771224976E0,-6.325073242E-1,3.737625122E0
4.787963867E0,1.728622437E0,-6.633911133E-1,3.542694092E0
4.790435791E0,1.683868408E0,-6.804351807E-1,3.342422485E0
4.792938232E0,1.642333984E0,-6.751098633E-1,3.145339966E0
4.795410156E0,1.602920532E0,-6.548767090E-1,2.949340820E0
4.797882080E0,1.562438965E0,-6.229095459E-1,2.751190186E0
4.800384521E0,1.525146484E0,-5.898895264E-1,2.549865723E0
4.802856445E0,1.486801147E0,-5.451507568E-1,2.351730347E0
4.805358887E0,1.442062378E0,-4.908294678E-1,2.149322510E0
4.807830810E0,1.401580811E0,-4.279785156E-1,1.949050903E0
4.810302734E0,1.364288330E0,-3.565979004E-1,1.747711182E0
4.812805176E0,1.327011108E0,-2.809600830E-1,1.553833008E0
4.815277099E0,1.289733887E0,-1.978759766E-1,1.367416382E0
4.817779541E0,1.255645752E0,-1.115875244E-1,1.185256958E0
4.820251465E0,1.218353271E0,-2.317810059E-2,1.007354736E0
4.822723389E0,1.184265137E0,6.843566895E-2,8.347930908E-1
4.825225830E0,1.151245117E0,1.419372559E-1,6.643371582E-1
4.827697754E0,1.117156982E0,2.122497559E-1,5.013580322E-1
4.830169678E0,1.087326050E0,2.783050537E-1,3.426361084E-1
4.832672119E0,1.054306030E0,3.379516602E-1,1.913604736E-1
4.835144043E0,1.020217896E0,3.880157471E-1,4.116821289E-2
4.837646484E0,9.871978760E-1,4.284973145E-1,-1.005096436E-1
4.840118408E0,9.552307129E-1,4.615173340E-1,-2.379302979E-1
4.842590332E0,9.243469238E-1,4.870910645E-1,-3.774871826E-1
4.845092773E0,8.881225586E-1,5.094604492E-1,-4.999847412E-1
4.847564697E0,8.551025391E-1,5.318298340E-1,-6.192932129E-1
4.850036621E0,8.263397217E-1,5.456848145E-1,-7.332763672E-1
4.852539062E0,7.933197021E-1,5.574035645E-1,-8.355407715E-1
4.855010986E0,7.634887695E-1,5.691223145E-1,-9.346160889E-1
4.857482910E0,7.315216064E-1,5.840301514E-1,-1.025161743E0
4.859985351E0,7.006378174E-1,5.936126709E-1,-1.109313965E0
4.862457275E0,6.708068848E-1,5.925445557E-1,-1.193481445E0
4.864959717E0,6.420440674E-1,6.000061035E-1,-1.265914917E0
4.867431640E0,6.164855957E-1,6.053314209E-1,-1.336227417E0
4.869903564E0,5.877227783E-1,6.149291992E-1,-1.408660889E0
4.872406006E0,5.632171631E-1,6.351623535E-1,-1.484298706E0
4.874877930E0,5.355224609E-1,6.532745361E-1,-1.526901245E0
4.877349853E0,5.056915283E-1,6.500701904E-1,-1.557800293E0
4.879852295E0,4.769287109E-1,6.404876709E-1,-1.590820312E0
4.882324219E0,4.481658936E-1,6.532745361E-1,-1.624908447E0
4.884826660E0,4.162139893E-1,6.831054688E-1,-1.653671265E0
4.887298584E0,3.778533936E-1,7.065277100E-1,-1.678176880E0
4.889770508E0,3.373870850E-1,7.246398926E-1,-1.704803467E0
4.892272949E0,2.926330566E-1,7.395629883E-1,-1.722915649E0
4.894744873E0,2.447052002E-1,7.555389404E-1,-1.737823486E0
4.897216797E0,1.925048828E-1,7.800445557E-1,-1.745285034E0
4.899719238E0,1.403045654E-1,8.066711426E-1,-1.749542236E0
4.902191162E0,8.810424805E-2,8.332977295E-1,-1.749542236E0
4.904693603E0,3.378295898E-2,8.599395752E-1,-1.749542236E0
4.907165527E0,-1.948547363E-2,8.833618164E-1,-1.742080688E0
4.909637451E0,-8.126831055E-2,9.036102295E-1,-1.735702515E0
4.912139892E0,-1.377258301E-1,9.313049316E-1,-1.727172852E0
4.914611816E0,-1.973876953E-1,9.526062012E-1,-1.713333130E0
4.917083740E0,-2.570343018E-1,9.696502686E-1,-1.696289062E0
4.919586181E0,-3.103027344E-1,9.898986816E-1,-1.680297852E0
4.922058105E0,-3.561096191E-1,1.005874634E0,-1.662185669E0
4.924560547E0,-4.040374756E-1,1.012268066E0,-1.638763428E0
4.927032471E0,-4.477233887E-1,1.009063721E0,-1.614257812E0
4.929504394E0,-4.892578125E-1,1.001617432E0,-1.597213745E0
4.932006836E0,-5.308074951E-1,9.930877686E-1,-1.573776245E0
4.934478760E0,-5.680999756E-1,9.771118164E-1,-1.546081543E0
4.936950683E0,-6.064453125E-1,9.526062012E-1,-1.521575928E0
4.939453125E0,-6.405334473E-1,9.313049316E-1,-1.494949341E0
4.941925049E0,-6.724853516E-1,9.046783447E-1,-1.469375610E0
4.944427490E0,-7.001800537E-1,8.748474121E-1,-1.444885254E0
4.946899414E0,-7.289428711E-1,8.514099121E-1,-1.422515869E0
4.949371338E0,-7.609100342E-1,8.322296143E-1,-1.401199341E0
4.951873779E0,-7.907409668E-1,8.151855469E-1,-1.384155273E0
4.954345703E0,-8.205566406E-1,7.960205078E-1,-1.361785889E0
4.956848144E0,-8.503875732E-1,7.853698730E-1,-1.343673706E0
4.959320068E0,-8.834075928E-1,7.757720947E-1,-1.326629639E0
4.961791992E0,-9.164428711E-1,7.672576904E-1,-1.312789917E0
4.964294433E0,-9.505310059E-1,7.661895752E-1,-1.301071167E0
4.966766357E0,-9.878082275E-1,7.683258057E-1,-1.289352417E0
4.969238281E0,-1.022964478E0,7.704467773E-1,-1.279769897E0
4.971740723E0,-1.054916382E0,7.715148926E-1,-1.272308350E0
4.974212646E0,-1.090072632E0,7.757720947E-1,-1.265914917E0
4.976715088E0,-1.123092651E0,7.853698730E-1,-1.262725830E0
4.979187012E0,-1.160385132E0,7.874908447E-1,-1.260589600E0
4.981658935E0,-1.195541382E0,7.938842773E-1,-1.263778687E0
4.984161377E0,-1.227493286E0,8.034667969E-1,-1.265914917E0
4.986633301E0,-1.251998901E0,8.088073730E-1,-1.270172119E0
4.989105224E0,-1.282882690E0,8.141326904E-1,-1.275497437E0
