"Time (s)","Acceleration x (m/s^2)","Acceleration y (m/s^2)","Acceleration z (m/s^2)"
0.000000000E0,-1.816711426E0,3.167526245E0,9.057861328E0
2.502442000E-3,-1.832870483E0,3.184890747E0,9.130874634E0
4.974365000E-3,-1.738296509E0,3.128021240E0,9.069229126E0
7.446289000E-3,-1.656295776E0,3.144180298E0,9.141052246E0
9.918213000E-3,-1.577285767E0,3.119049072E0,9.161407471E0
1.242065500E-2,-1.465362549E0,3.135208130E0,9.136276245E0
1.489257800E-2,-1.353424072E0,3.091506958E0,9.099151611E0
1.739502000E-2,-1.220550537E0,3.074157715E0,9.119506836E0
1.986694400E-2,-1.184631348E0,3.108276367E0,9.142257690E0
2.233886700E-2,-1.112808228E0,3.102890015E0,9.083602905E0
2.481079100E-2,-1.031402588E0,3.107070923E0,9.068038940E0
2.731323300E-2,-9.709625244E-1,3.116653442E0,9.073425293E0
2.981567400E-2,-8.644104004E-1,3.101684570E0,9.000396729E0
3.231811500E-2,-8.476562500E-1,3.125625610E0,8.973464966E0
3.479003900E-2,-8.153381348E-1,3.095703125E0,9.019546509E0
3.726196300E-2,-7.680511475E-1,3.113662720E0,8.957901001E0
3.973388700E-2,-6.782684326E-1,3.116058350E0,8.905822754E0
4.223632800E-2,-6.459503174E-1,3.111267090E0,8.923782349E0
4.470825200E-2,-6.327819824E-1,3.118453979E0,8.894454956E0
4.721069400E-2,-5.651397705E-1,3.143585205E0,8.904037476E0
4.968261700E-2,-5.513763428E-1,3.156158447E0,8.954315186E0
5.215454100E-2,-5.585479736E-1,3.122634888E0,8.980651855E0
5.462646500E-2,-5.872802734E-1,3.058593750E0,8.997406006E0
5.712890600E-2,-5.549621582E-1,3.062789917E0,9.014770508E0
5.960083000E-2,-5.705261230E-1,3.063980103E0,9.044097900E0
6.210327200E-2,-5.998535156E-1,3.097503662E0,9.112930298E0
6.457519600E-2,-5.825042725E-1,3.049011230E0,9.140457153E0
6.707763700E-2,-6.297760010E-1,3.093307495E0,9.144653320E0
6.954956100E-2,-6.638946533E-1,3.081344604E0,9.210494995E0
7.202148500E-2,-6.632995605E-1,3.034652710E0,9.238021851E0
7.452392600E-2,-7.135772705E-1,3.083740234E0,9.261962891E0
7.699585000E-2,-7.650604248E-1,3.043624878E0,9.334396362E0
7.946777400E-2,-8.632202148E-1,3.047821045E0,9.370300293E0
8.197021500E-2,-8.919525146E-1,3.049011230E0,9.361923218E0
8.444213900E-2,-9.440155029E-1,2.986770630E0,9.427764893E0
8.691406300E-2,-1.021835327E0,2.995147705E0,9.430755615E0
8.941650400E-2,-1.058349609E0,2.990356445E0,9.455902100E0
9.188842800E-2,-1.073303223E0,2.948455811E0,9.512756348E0
9.439086900E-2,-1.105636597E0,2.974197388E0,9.491210938E0
9.686279300E-2,-1.112808228E0,2.937683105E0,9.510955811E0
9.933471700E-2,-1.146926880E0,3.003524780E0,9.466064453E0
1.018371580E-1,-1.130172729E0,3.032852173E0,9.469070435E0
1.043090820E-1,-1.141540527E0,2.981979370E0,9.436141968E0
1.068115240E-1,-1.130767822E0,3.001129150E0,9.368499756E0
1.092834470E-1,-1.164886475E0,3.014297485E0,9.357131958E0
1.117553710E-1,-1.166076660E0,3.043624878E0,9.258972168E0
1.142578130E-1,-1.103240967E0,3.036453247E0,9.227844238E0
1.167297370E-1,-1.099044800E0,2.996948242E0,9.166793823E0
1.192016600E-1,-1.105026245E0,3.049011230E0,9.080001831E0
1.217041020E-1,-1.113403320E0,3.075958252E0,9.038101196E0
1.241760260E-1,-1.118804932E0,3.090316772E0,9.022537231E0
1.266784670E-1,-1.089462280E0,3.120849609E0,9.000396729E0
1.291503910E-1,-1.058349609E0,3.153167725E0,8.997406006E0
1.316223150E-1,-1.082885742E0,3.182495117E0,8.983047485E0
1.341247560E-1,-1.052352905E0,3.157348633E0,9.017761230E0
1.365966800E-1,-1.055358887E0,3.157958984E0,9.036315918E0
1.390686040E-1,-1.042785645E0,3.177703857E0,9.041091919E0
1.415710450E-1,-1.000289917E0,3.172912598E0,9.124298096E0
1.440429690E-1,-1.010467529E0,3.212417603E0,9.120712280E0
1.465454100E-1,-9.553985596E-1,3.198059082E0,9.132675171E0
1.490173340E-1,-9.296569824E-1,3.228576660E0,9.124298096E0
1.514892580E-1,-9.140930176E-1,3.247131348E0,9.169189453E0
1.539916990E-1,-8.273010254E-1,3.247741699E0,9.160217285E0
1.564636230E-1,-8.207244873E-1,3.235168457E0,9.129089355E0
1.589355470E-1,-8.326873779E-1,3.263305664E0,9.103347778E0
1.614379880E-1,-7.728424072E-1,3.306396484E0,9.103942871E0
1.639099120E-1,-7.165679932E-1,3.253723145E0,9.124893188E0
1.663818360E-1,-6.986083984E-1,3.253723145E0,9.128494263E0
1.688842780E-1,-6.830596924E-1,3.229782104E0,9.108734131E0
1.713562010E-1,-6.166076660E-1,3.236358643E0,9.072830200E0
1.738586430E-1,-5.747222900E-1,3.253128052E0,9.086593628E0
1.763305670E-1,-5.417938232E-1,3.235168457E0,9.079406738E0
1.788024900E-1,-5.262298584E-1,3.235168457E0,9.093765259E0
1.813049320E-1,-5.022888184E-1,3.265686035E0,9.049484253E0
1.837768560E-1,-5.382080078E-1,3.264495850E0,9.035705566E0
1.862487800E-1,-5.705261230E-1,3.271072388E0,9.063247681E0
1.887512210E-1,-5.370025635E-1,3.282455444E0,9.034515381E0
1.912231450E-1,-5.435943604E-1,3.310577393E0,9.057266235E0
1.937255860E-1,-5.794982910E-1,3.255523682E0,9.066833496E0
1.961975100E-1,-5.878906250E-1,3.234573364E0,9.032119751E0
1.986694340E-1,-5.693359375E-1,3.293228149E0,9.042297363E0
2.011718750E-1,-6.585083008E-1,3.282455444E0,9.020751953E0
2.036437990E-1,-6.956176758E-1,3.228576660E0,9.020751953E0
2.061157230E-1,-7.046051025E-1,3.260910034E0,8.968078613E0
2.086181640E-1,-7.261505127E-1,3.261505127E0,8.963882446E0
2.110900880E-1,-7.351226807E-1,3.242355347E0,8.907028198E0
2.135925300E-1,-8.177337646E-1,3.168731689E0,8.904632568E0
2.160644530E-1,-8.793792725E-1,3.186676025E0,8.883682251E0
2.185363770E-1,-8.602294922E-1,3.236358643E0,8.875900269E0
2.210388190E-1,-8.769836426E-1,3.242950439E0,8.822036743E0
2.235107420E-1,-9.105072021E-1,3.241744995E0,8.802871704E0
2.259826660E-1,-9.140930176E-1,3.251327515E0,8.819641113E0
2.284851080E-1,-9.494018555E-1,3.217803955E0,8.799880981E0
2.309570310E-1,-9.338531494E-1,3.183090210E0,8.807067871E0
2.334594730E-1,-1.008071899E0,3.193267822E0,8.821426392E0
2.359313970E-1,-1.058349609E0,3.199249268E0,8.779525757E0
2.384033210E-1,-1.049957275E0,3.158554077E0,8.805267334E0
2.409057620E-1,-1.060745239E0,3.156158447E0,8.857345581E0
2.433776860E-1,-1.105026245E0,3.117843628E0,8.825027466E0
2.458496100E-1,-1.130172729E0,3.148376465E0,8.810058594E0
2.483520510E-1,-1.156509399E0,3.133407593E0,8.795089722E0
2.508239750E-1,-1.087677002E0,3.107681274E0,8.787918091E0
2.533264160E-1,-1.093063354E0,3.134613037E0,8.757385254E0
2.557983400E-1,-1.118804932E0,3.187286377E0,8.671798706E0
2.582702640E-1,-1.082885742E0,3.176513672E0,8.616134644E0
2.607727050E-1,-1.058349609E0,3.186080933E0,8.635879517E0
2.632446290E-1,-1.049957275E0,3.183090210E0,8.607147217E0
2.657165530E-1,-1.085876465E0,3.200454712E0,8.524551392E0
2.682189940E-1,-1.078689575E0,3.183090210E0,8.520965576E0
2.706909180E-1,-1.107421875E0,3.153167725E0,8.550888062E0
2.731933600E-1,-1.106826782E0,3.166336060E0,8.535919189E0
2.756652830E-1,-1.076904297E0,3.167526245E0,8.523956299E0
2.781677250E-1,-1.112213135E0,3.159149170E0,8.527542114E0
2.806396490E-1,-1.117599487E0,3.188476562E0,8.558670044E0
2.831115720E-1,-1.120590210E0,3.171127319E0,8.604751587E0
2.855834960E-1,-1.070312500E0,3.159149170E0,8.637084961E0
2.880859380E-1,-1.052352905E0,3.156158447E0,8.712493896E0
2.905578620E-1,-1.079895020E0,3.156753540E0,8.725067139E0
2.930603030E-1,-1.083480835E0,3.151962280E0,8.771148682E0
2.955322270E-1,-1.075698853E0,3.111862183E0,8.820236206E0
2.980041510E-1,-1.052963257E0,3.138198853E0,8.863922119E0
3.005065920E-1,-1.033203125E0,3.148971558E0,8.847763062E0
3.029785160E-1,-1.027816772E0,3.086120605E0,8.842376709E0
3.054504400E-1,-9.727478027E-1,3.063980103E0,8.815444946E0
3.079528810E-1,-1.008071899E0,3.064575195E0,8.776535034E0
3.104248050E-1,-9.942932129E-1,3.058593750E0,8.763977051E0
3.129272460E-1,-9.452209473E-1,3.069366455E0,8.758590698E0
3.153991700E-1,-9.613800049E-1,3.068771362E0,8.813049316E0
3.178710940E-1,-9.763488770E-1,3.073562622E0,8.833999634E0
3.203735350E-1,-9.829254150E-1,3.033447266E0,8.804672241E0
3.228454590E-1,-1.009857178E0,3.008911133E0,8.835205078E0
3.253173830E-1,-1.026016235E0,2.989166260E0,8.841781616E0
3.278198240E-1,-1.053558350E0,3.012512207E0,8.861541748E0
3.302917480E-1,-1.065521240E0,3.007720947E0,8.893859863E0
3.327941900E-1,-1.113403320E0,2.990951538E0,8.826217651E0
3.352661130E-1,-1.084075928E0,3.016098022E0,8.789108276E0
3.377380370E-1,-1.081085205E0,2.998733521E0,8.799285889E0
3.402404790E-1,-1.079299927E0,2.999938965E0,8.792098999E0
3.427124030E-1,-1.062530518E0,3.020294189E0,8.765167236E0
3.451843260E-1,-1.075698853E0,3.026275635E0,8.787918091E0
3.476867680E-1,-1.066726685E0,3.029861450E0,8.819030762E0
3.501586920E-1,-1.082885742E0,3.002334595E0,8.813644409E0
3.526611330E-1,-1.106231689E0,2.987365723E0,8.819030762E0
3.551330570E-1,-1.109817505E0,2.975402832E0,8.780731201E0
3.576049810E-1,-1.088867188E0,2.980789185E0,8.804672241E0
3.601074220E-1,-1.058349609E0,2.937088013E0,8.765762329E0
3.625793460E-1,-1.081085205E0,2.986175537E0,8.746612549E0
3.650817870E-1,-1.017639160E0,2.980789185E0,8.761581421E0
3.675537110E-1,-1.006271362E0,2.974792480E0,8.708908081E0
3.700256350E-1,-1.006866455E0,2.965225220E0,8.629302979E0
3.725280760E-1,-9.865112305E-1,2.974792480E0,8.610137939E0
3.750000000E-1,-9.877166748E-1,2.982574463E0,8.590988159E0
3.774719240E-1,-9.422302246E-1,2.955642700E0,8.595184326E0
3.799743650E-1,-9.524078369E-1,2.973602295E0,8.473068237E0
3.824462890E-1,-9.362335205E-1,2.956832886E0,8.456314087E0
3.849182130E-1,-8.781738281E-1,2.952056885E0,8.452133179E0
3.874206550E-1,-8.518371582E-1,2.971801758E0,8.459304810E0
3.898925780E-1,-8.638153076E-1,2.985565186E0,8.394073486E0
3.923950200E-1,-8.482513428E-1,2.996337891E0,8.375518799E0
3.948669440E-1,-8.219146729E-1,3.077743530E0,8.416809082E0
3.973388670E-1,-7.895965576E-1,3.036453247E0,8.328231812E0
3.998413090E-1,-8.261108398E-1,2.929901123E0,8.460510254E0
4.023132330E-1,-7.794189453E-1,2.899978638E0,8.494018555E0
4.047851560E-1,-7.997741699E-1,2.934097290E0,8.486846924E0
4.072875980E-1,-8.111419678E-1,2.896987915E0,8.553878784E0
4.097595220E-1,-9.081115723E-1,2.879623413E0,8.678375244E0
4.122619630E-1,-9.978942871E-1,2.843719482E0,8.752593994E0
4.147338870E-1,-9.033203125E-1,2.910156250E0,8.731643677E0
4.172363280E-1,-8.692016602E-1,2.952056885E0,8.713699341E0
4.197082520E-1,-8.344879150E-1,2.956237793E0,8.665206909E0
4.221801760E-1,-7.794189453E-1,2.918533325E0,8.602355957E0
4.246521000E-1,-7.890014648E-1,2.881423950E0,8.508987427E0
4.271545410E-1,-7.099914551E-1,2.896987915E0,8.508987427E0
4.296264650E-1,-6.381683350E-1,2.867050171E0,8.528137207E0
4.321289060E-1,-5.884857178E-1,2.859878540E0,8.485641479E0
4.346008300E-1,-5.950622559E-1,2.879028320E0,8.418609619E0
4.370727540E-1,-5.854949951E-1,2.828155518E0,8.330017090E0
4.395751960E-1,-5.633392334E-1,2.859283447E0,8.303680420E0
4.420471190E-1,-5.286254883E-1,2.841918945E0,8.234848022E0
4.445190430E-1,-4.154968262E-1,2.814392090E0,8.183380127E0
4.470214850E-1,-3.352966309E-1,2.812591553E0,8.188766479E0
4.494934080E-1,-3.574371338E-1,2.809005737E0,8.140274048E0
4.519958500E-1,-3.526458740E-1,2.667739868E0,8.089401245E0
4.544677740E-1,-3.161468506E-1,2.673126221E0,8.124725342E0
4.569396970E-1,-3.245239258E-1,2.735977173E0,8.125320435E0
4.594421390E-1,-3.287048340E-1,2.793441772E0,8.175003052E0
4.619140630E-1,-2.844238281E-1,2.766494751E0,8.148666382E0
4.643859870E-1,-2.425231934E-1,2.740158081E0,8.104965210E0
4.668884280E-1,-3.281097412E-1,2.714431763E0,8.118133545E0
4.693603520E-1,-3.317108154E-1,2.731781006E0,8.239639282E0
4.718627930E-1,-3.825836182E-1,2.639602661E0,8.255798340E0
4.743347170E-1,-3.628234863E-1,2.621658325E0,8.353363037E0
4.768371580E-1,-3.592376709E-1,2.593521118E0,8.461700439E0
4.793090820E-1,-4.460296631E-1,2.619857788E0,8.543106079E0
4.817810060E-1,-5.094757080E-1,2.641998291E0,8.595779419E0
4.842834470E-1,-5.208435059E-1,2.576766968E0,8.705917358E0
4.867553710E-1,-5.244445801E-1,2.578552246E0,8.825622559E0
4.892272950E-1,-5.735168457E-1,2.562393188E0,8.851364136E0
4.917297370E-1,-6.447448730E-1,2.485183716E0,8.916595459E0
4.942016600E-1,-6.704864502E-1,2.560592651E0,8.989028931E0
4.966735840E-1,-6.782684326E-1,2.599502563E0,8.966278076E0
4.991760260E-1,-6.806640625E-1,2.537857056E0,9.070434570E0
5.016479490E-1,-7.536773682E-1,2.502532959E0,9.146438599E0
5.041198730E-1,-7.949829102E-1,2.488174438E0,9.172180176E0
5.066223150E-1,-8.207244873E-1,2.451065063E0,9.131484985E0
5.090942380E-1,-8.739929199E-1,2.439086914E0,9.146438599E0
5.115966800E-1,-9.326477051E-1,2.442687988E0,9.204498291E0
5.140686040E-1,-9.512023926E-1,2.505538940E0,9.211090088E0
5.165405280E-1,-9.883117676E-1,2.501937866E0,9.332595825E0
5.190429690E-1,-9.901123047E-1,2.497756958E0,9.395446777E0
5.215148930E-1,-1.005065918E0,2.503738403E0,9.400833130E0
5.240173340E-1,-1.043975830E0,2.542648315E0,9.365509033E0
5.264892580E-1,-1.064926147E0,2.571975708E0,9.370300293E0
5.289611820E-1,-1.111022949E0,2.467224121E0,9.380477905E0
5.314636230E-1,-1.193618774E0,2.409759521E0,9.464279175E0
5.339355470E-1,-1.173858643E0,2.421737671E0,9.564239502E0
5.364074710E-1,-1.176254272E0,2.473815918E0,9.618103027E0
5.389099120E-1,-1.263641357E0,2.462432861E0,9.612121582E0
5.413818360E-1,-1.277420044E0,2.453460693E0,9.685745239E0
5.438842780E-1,-1.248077393E0,2.481597900E0,9.773727417E0
5.463562010E-1,-1.297164917E0,2.470809937E0,9.816818237E0
5.488281250E-1,-1.346252441E0,2.413360596E0,9.892242432E0
5.513305670E-1,-1.398925781E0,2.422332764E0,9.906600952E0
5.538024900E-1,-1.359420776E0,2.495956421E0,9.995193481E0
5.562744140E-1,-1.386352539E0,2.422332764E0,9.995193481E0
5.587768560E-1,-1.498870850E0,2.391815186E0,1.007299805E1
5.612487800E-1,-1.470748901E0,2.376846313E0,1.007240295E1
5.637512210E-1,-1.511444092E0,2.407974243E0,1.006222534E1
5.662231450E-1,-1.499481201E0,2.391204834E0,1.006881714E1
5.686950690E-1,-1.613204956E0,2.383422852E0,1.009515381E1
5.711975100E-1,-1.620986938E0,2.363082886E0,1.009634399E1
5.736694340E-1,-1.640731812E0,2.367263794E0,1.010711670E1
5.761413580E-1,-1.702987671E0,2.418746948E0,1.012626648E1
5.786437990E-1,-1.692810059E0,2.458847046E0,1.013165283E1
5.811157230E-1,-1.703582764E0,2.489974976E0,1.013046265E1
5.836181640E-1,-1.746673584E0,2.429519653E0,1.011608887E1
5.860900880E-1,-1.732910156E0,2.486373901E0,1.007719421E1
5.885620120E-1,-1.762832642E0,2.512115479E0,1.005264282E1
5.910644530E-1,-1.753265381E0,2.495956421E0,1.015440369E1
5.935363770E-1,-1.740097046E0,2.449264526E0,1.013584900E1
5.960083010E-1,-1.722732544E0,2.445083618E0,1.012327576E1
5.985107420E-1,-1.720932007E0,2.410369873E0,1.011788940E1
6.009826660E-1,-1.669464111E0,2.400192261E0,1.014422607E1
6.034851080E-1,-1.670654297E0,2.348709106E0,1.013165283E1
6.059570310E-1,-1.606018066E0,2.412765503E0,1.006282043E1
6.084289550E-1,-1.635940552E0,2.423538208E0,1.007000732E1
6.109313970E-1,-1.626373291E0,2.387023926E0,1.002751160E1
6.134033210E-1,-1.592849731E0,2.410369873E0,1.000537109E1
6.158752440E-1,-1.580276489E0,2.451065063E0,9.965866089E0
6.183776860E-1,-1.562316895E0,2.510925293E0,9.909591675E0
6.208496100E-1,-1.590454102E0,2.518096924E0,9.842559814E0
6.233520510E-1,-1.550354004E0,2.469024658E0,9.840164185E0
6.258239750E-1,-1.484512329E0,2.438491821E0,9.825195312E0
6.282958990E-1,-1.479125977E0,2.506134033E0,9.744995117E0
6.307983400E-1,-1.505462646E0,2.552215576E0,9.691131592E0
6.332702640E-1,-1.484512329E0,2.521697998E0,9.682144165E0
6.357421880E-1,-1.409698486E0,2.558212280E0,9.636657715E0
6.382446290E-1,-1.404312134E0,2.537857056E0,9.651626587E0
6.407165530E-1,-1.437225342E0,2.561798096E0,9.603744507E0
6.432189940E-1,-1.384552002E0,2.571380615E0,9.591171265E0
6.456909180E-1,-1.374984741E0,2.595321655E0,9.624679565E0
6.481628420E-1,-1.362411499E0,2.583343506E0,9.528320312E0
6.506652830E-1,-1.357025146E0,2.604293823E0,9.507965088E0
6.531372070E-1,-1.325897217E0,2.649185181E0,9.539093018E0
6.556091310E-1,-1.345046997E0,2.634826660E0,9.548675537E0
6.581115720E-1,-1.303146362E0,2.599502563E0,9.563629150E0
6.605834960E-1,-1.240905762E0,2.628829956E0,9.578002930E0
6.630859380E-1,-1.208587646E0,2.609680176E0,9.624679565E0
6.655578620E-1,-1.201995850E0,2.604888916E0,9.644439697E0
6.680297850E-1,-1.174468994E0,2.616271973E0,9.674362183E0
6.705322270E-1,-1.196609497E0,2.652175903E0,9.654022217E0
6.730041510E-1,-1.170272827E0,2.640213013E0,9.674957275E0
6.754760740E-1,-1.129577637E0,2.646194458E0,9.712081909E0
6.779785160E-1,-1.087081909E0,2.637207031E0,9.717468262E0
6.804504400E-1,-1.073303223E0,2.611480713E0,9.753372192E0
6.829528810E-1,-1.059539795E0,2.629440308E0,9.756973267E0
6.854248050E-1,-1.077499390E0,2.616271973E0,9.710281372E0
6.878967290E-1,-1.061935425E0,2.562393188E0,9.697113037E0
6.903991700E-1,-1.027816772E0,2.583938599E0,9.679748535E0
6.928710940E-1,-9.954986572E-1,2.589324951E0,9.684539795E0
6.953430180E-1,-1.021835327E0,2.582153320E0,9.730636597E0
6.978454590E-1,-1.027816772E0,2.565994263E0,9.662994385E0
7.003173830E-1,-1.034408569E0,2.593521118E0,9.669570923E0
7.028198240E-1,-1.021835327E0,2.613876343E0,9.683349609E0
7.052917480E-1,-1.060134888E0,2.600097656E0,9.678558350E0
7.077636720E-1,-1.082885742E0,2.594711304E0,9.672576904E0
7.102661130E-1,-1.105636597E0,2.583343506E0,9.667785645E0
7.127380370E-1,-1.144531250E0,2.628234863E0,9.709075928E0
7.152099610E-1,-1.121185303E0,2.567779541E0,9.703689575E0
7.177124030E-1,-1.088867188E0,2.543243408E0,9.733016968E0
7.201843260E-1,-1.144531250E0,2.561798096E0,9.724044800E0
7.226867680E-1,-1.177459717E0,2.573760986E0,9.758758545E0
7.251586920E-1,-1.151123047E0,2.555816650E0,9.724639893E0
7.276306150E-1,-1.176864624E0,2.558807373E0,9.730026245E0
7.301330570E-1,-1.209182739E0,2.554016113E0,9.806045532E0
7.326049810E-1,-1.269027710E0,2.549819946E0,9.763549805E0
7.351074220E-1,-1.266647339E0,2.543243408E0,9.780914307E0
7.375793460E-1,-1.287582397E0,2.583343506E0,9.787490845E0
7.400512700E-1,-1.302551270E0,2.564193726E0,9.829391479E0
7.425537110E-1,-1.322906494E0,2.549819946E0,9.794677734E0
7.450256350E-1,-1.357025146E0,2.572570801E0,9.776123047E0
7.474975590E-1,-1.379165649E0,2.570175171E0,9.764739990E0
7.500000000E-1,-1.425857544E0,2.535461426E0,9.737808228E0
7.524719240E-1,-1.431838989E0,2.564788818E0,9.720458984E0
7.549438480E-1,-1.409698486E0,2.561203003E0,9.696517944E0
7.574462890E-1,-1.462966919E0,2.567779541E0,9.695907593E0
7.599182130E-1,-1.488708496E0,2.570770264E0,9.639648438E0
7.624206550E-1,-1.497680664E0,2.575561523E0,9.642044067E0
7.648925780E-1,-1.532989502E0,2.596511841E0,9.605529785E0
7.673645020E-1,-1.528213501E0,2.554611206E0,9.524124146E0
7.698669440E-1,-1.504257202E0,2.613265991E0,9.505569458E0
7.723388670E-1,-1.562316895E0,2.606689453E0,9.515747070E0
7.748413090E-1,-1.566513062E0,2.555206299E0,9.422378540E0
7.773132330E-1,-1.580276489E0,2.591125488E0,9.412796021E0
7.797851560E-1,-1.577285767E0,2.607284546E0,9.376892090E0
7.822875980E-1,-1.562316895E0,2.600708008E0,9.348754883E0
7.847595220E-1,-1.560531616E0,2.630630493E0,9.362518311E0
7.872314460E-1,-1.611999512E0,2.669540405E0,9.328399658E0
7.897338870E-1,-1.594039917E0,2.646789551E0,9.332000732E0
7.922058110E-1,-1.629364014E0,2.609680176E0,9.378677368E0
7.946777350E-1,-1.618591309E0,2.594711304E0,9.401428223E0
7.971801760E-1,-1.569503784E0,2.567779541E0,9.364913940E0
7.996521000E-1,-1.591049194E0,2.636016846E0,9.394836426E0
8.021545410E-1,-1.544372559E0,2.625839233E0,9.426559448E0
8.046264650E-1,-1.510848999E0,2.601303101E0,9.410400391E0
8.070983890E-1,-1.502471924E0,2.604293823E0,9.397842407E0
8.096008300E-1,-1.431838989E0,2.587539673E0,9.449905396E0
8.120727540E-1,-1.427047729E0,2.598907471E0,9.429565430E0
8.145446780E-1,-1.408493042E0,2.591720581E0,9.475646973E0
8.170471190E-1,-1.390533447E0,2.586334229E0,9.514556885E0
8.195190430E-1,-1.373779297E0,2.573760986E0,9.484024048E0
8.220214850E-1,-1.338470459E0,2.571380615E0,9.434951782E0
8.244934080E-1,-1.348648071E0,2.545043945E0,9.461883545E0
8.269653320E-1,-1.290588379E0,2.540252686E0,9.428955078E0
8.294677740E-1,-1.292968750E0,2.524093628E0,9.409805298E0
8.319396970E-1,-1.257659912E0,2.533065796E0,9.417587280E0
8.344421390E-1,-1.270233154E0,2.569580078E0,9.393646240E0
8.369140630E-1,-1.236709595E0,2.591125488E0,9.396041870E0
8.393859870E-1,-1.230728149E0,2.533660889E0,9.359527588E0
8.418884280E-1,-1.264251709E0,2.564788818E0,9.337982178E0
8.443603520E-1,-1.228927612E0,2.565383911E0,9.361328125E0
8.468322760E-1,-1.221145630E0,2.557601929E0,9.311050415E0
8.493347170E-1,-1.249877930E0,2.556411743E0,9.223052979E0
8.518066410E-1,-1.222351074E0,2.588134766E0,9.236831665E0
8.542785650E-1,-1.193023682E0,2.561203003E0,9.227844238E0
8.567810060E-1,-1.218154907E0,2.543838501E0,9.178771973E0
8.592529300E-1,-1.196014404E0,2.586929321E0,9.143447876E0
8.617553710E-1,-1.221145630E0,2.545639038E0,9.176376343E0
8.642272950E-1,-1.189422607E0,2.553421021E0,9.146438599E0
8.666992190E-1,-1.142745972E0,2.596511841E0,9.118911743E0
8.692016600E-1,-1.222351074E0,2.607879639E0,9.140457153E0
8.716735840E-1,-1.276809692E0,2.609085083E0,9.111129761E0
8.741760260E-1,-1.260650635E0,2.597106934E0,9.082992554E0
8.766479490E-1,-1.238510132E0,2.603103638E0,9.107543945E0
8.791198730E-1,-1.255859375E0,2.571380615E0,9.097366333E0
8.816223150E-1,-1.286392212E0,2.596511841E0,9.141662598E0
8.840942380E-1,-1.275619507E0,2.623443604E0,9.167999268E0
8.865661620E-1,-1.276809692E0,2.614471436E0,9.180557251E0
8.890686040E-1,-1.276214600E0,2.612075806E0,9.137466431E0
8.915405280E-1,-1.270233154E0,2.588729858E0,9.126098633E0
8.940429690E-1,-1.295974731E0,2.537857056E0,9.156616211E0
8.965148930E-1,-1.302551270E0,2.569580078E0,9.164993286E0
8.989868170E-1,-1.282196045E0,2.624649048E0,9.156616211E0
9.014892580E-1,-1.218750000E0,2.598907471E0,9.210494995E0
9.039611820E-1,-1.206787109E0,2.638412476E0,9.198516846E0
9.064331060E-1,-1.193618774E0,2.668930054E0,9.151824951E0
9.089355470E-1,-1.152908325E0,2.646789551E0,9.163803101E0
9.114074710E-1,-1.160690308E0,2.619262695E0,9.145843506E0
9.139099120E-1,-1.121185303E0,2.624649048E0,9.138656616E0
9.163818360E-1,-1.115203857E0,2.565383911E0,9.179962158E0
9.188537600E-1,-1.095458984E0,2.565383911E0,9.154220581E0
9.213562010E-1,-1.100250244E0,2.555206299E0,9.149444580E0
9.238281250E-1,-1.072113037E0,2.594116211E0,9.211685181E0
9.263000490E-1,-1.048767090E0,2.585739136E0,9.230834961E0
9.288024900E-1,-1.040985107E0,2.592926025E0,9.261962891E0
9.312744140E-1,-1.033798218E0,2.613876343E0,9.269744873E0
9.337768560E-1,-1.026626587E0,2.591125488E0,9.355941772E0
9.362487800E-1,-1.040390015E0,2.575561523E0,9.353546143E0
9.387207030E-1,-9.781341553E-1,2.566589355E0,9.383468628E0
9.412231450E-1,-9.685668945E-1,2.574371338E0,9.463073730E0
9.436950690E-1,-9.212799072E-1,2.540847778E0,9.387054443E0
9.461669920E-1,-8.680114746E-1,2.564788818E0,9.430160522E0
9.486694340E-1,-8.464508057E-1,2.589324951E0,9.387054443E0
9.511413580E-1,-8.763885498E-1,2.557006836E0,9.362518311E0
9.536437990E-1,-8.374786377E-1,2.530670166E0,9.385864258E0
9.561157230E-1,-8.811798096E-1,2.546234131E0,9.395446777E0
9.585876470E-1,-8.518371582E-1,2.545043945E0,9.349945068E0
9.610900880E-1,-8.309020996E-1,2.549819946E0,9.422973633E0
9.635620120E-1,-8.416748047E-1,2.562988281E0,9.374496460E0
9.660339360E-1,-8.674011230E-1,2.579757690E0,9.381668091E0
9.685363770E-1,-8.793792725E-1,2.557006836E0,9.397842407E0
9.710083010E-1,-8.428649902E-1,2.575561523E0,9.343368530E0
9.735107420E-1,-8.602294922E-1,2.562988281E0,9.369705200E0
9.759826660E-1,-8.452606201E-1,2.556411743E0,9.389450073E0
9.784545900E-1,-8.350830078E-1,2.560592651E0,9.409210205E0
9.809570310E-1,-8.093414307E-1,2.546234131E0,9.374496460E0
9.834289550E-1,-8.171234131E-1,2.542037964E0,9.406814575E0
9.859008790E-1,-8.219146729E-1,2.507934570E0,9.388854980E0
9.884033210E-1,-7.710418701E-1,2.517501831E0,9.380477905E0
9.908752440E-1,-7.285461426E-1,2.529479980E0,9.439132690E0
9.933776860E-1,-7.955780029E-1,2.520492554E0,9.422973633E0
9.958496100E-1,-8.051605225E-1,2.527679443E0,9.373886108E0
9.983215330E-1,-7.967834473E-1,2.495956421E0,9.376892090E0
1.000823975E0,-7.812194824E-1,2.537261963E0,9.353546143E0
1.003295899E0,-8.033599854E-1,2.519897461E0,9.345169067E0
1.005767822E0,-8.309020996E-1,2.476806641E0,9.317626953E0
1.008270264E0,-8.847656250E-1,2.519897461E0,9.312835693E0
1.010742188E0,-8.560333252E-1,2.537261963E0,9.326004028E0
1.013244629E0,-8.692016602E-1,2.502532959E0,9.302062988E0
1.015716553E0,-8.949432373E-1,2.525878906E0,9.323013306E0
1.018188477E0,-9.440155029E-1,2.425323486E0,9.340377808E0
1.020690918E0,-9.027252197E-1,2.430114746E0,9.374496460E0
1.023162842E0,-8.895568848E-1,2.467819214E0,9.370300293E0
1.025634766E0,-9.170837402E-1,2.498947144E0,9.314636230E0
1.028137207E0,-9.799346924E-1,2.518707275E0,9.266159058E0
1.030609131E0,-1.003875732E0,2.542037964E0,9.258972168E0
1.033111572E0,-9.517974854E-1,2.569580078E0,9.270950317E0
1.035583496E0,-9.422302246E-1,2.554016113E0,9.249389648E0
1.038055420E0,-9.661712646E-1,2.547424316E0,9.215881348E0
1.040557862E0,-1.020034790E0,2.562988281E0,9.164398193E0
1.043029785E0,-1.048767090E0,2.544433594E0,9.126693726E0
1.045501709E0,-1.046966553E0,2.509124756E0,9.163803101E0
1.048004151E0,-1.051757812E0,2.528869629E0,9.164993286E0
1.050476074E0,-1.107421875E0,2.590530396E0,9.173385620E0
1.052978516E0,-1.082290649E0,2.590530396E0,9.185943604E0
1.055450440E0,-1.109817505E0,2.586334229E0,9.196716309E0
1.057922363E0,-1.079895020E0,2.538452148E0,9.186553955E0
1.060424805E0,-1.133758545E0,2.567184448E0,9.159606934E0
1.062896729E0,-1.113403320E0,2.568374634E0,9.151229858E0
1.065368653E0,-1.111022949E0,2.618652344E0,9.163803101E0
1.067871094E0,-1.130767822E0,2.638412476E0,9.184753418E0
1.070343018E0,-1.118804932E0,2.586334229E0,9.180557251E0
1.072845459E0,-1.115798950E0,2.473815918E0,9.169784546E0
1.075317383E0,-1.069717407E0,2.512115479E0,9.147048950E0
1.077789307E0,-1.069717407E0,2.577362061E0,9.246994019E0
1.080291748E0,-1.103836060E0,2.656967163E0,9.222457886E0
1.082763672E0,-1.096054077E0,2.723999023E0,9.200317383E0
1.085235596E0,-1.075103760E0,2.645599365E0,9.241607666E0
1.087738037E0,-1.081680298E0,2.646194458E0,9.208099365E0
1.090209961E0,-1.075698853E0,2.603103638E0,9.194335938E0
1.092712403E0,-1.052352905E0,2.595321655E0,9.255386353E0
1.095184326E0,-1.022430420E0,2.585739136E0,9.243408203E0
1.097656250E0,-1.021835327E0,2.585144043E0,9.244613647E0
1.100158692E0,-9.978942871E-1,2.553421021E0,9.237426758E0
1.102630615E0,-9.691619873E-1,2.531875610E0,9.258377075E0
1.105102539E0,-9.332427979E-1,2.477401733E0,9.296676636E0
1.107604981E0,-9.661712646E-1,2.540847778E0,9.276931763E0
1.110076905E0,-9.428253174E-1,2.570770264E0,9.295486450E0
1.112579346E0,-9.098968506E-1,2.577362061E0,9.267349243E0
1.115051270E0,-8.715972900E-1,2.606094360E0,9.227844238E0
1.117523194E0,-8.105468750E-1,2.641998291E0,9.282913208E0
1.120025635E0,-8.500518799E-1,2.606094360E0,9.233825684E0
1.122497559E0,-8.177337646E-1,2.617462158E0,9.267944336E0
1.124969483E0,-7.770233154E-1,2.555816650E0,9.267944336E0
1.127471924E0,-7.243499756E-1,2.570175171E0,9.256576538E0
1.129943848E0,-6.848449707E-1,2.596511841E0,9.300277710E0
1.132446289E0,-6.082305908E-1,2.590530396E0,9.351150513E0
1.134918213E0,-5.968627930E-1,2.574966431E0,9.306259155E0
1.137390137E0,-5.998535156E-1,2.564788818E0,9.263763428E0
1.139892578E0,-5.818939209E-1,2.546234131E0,9.279327393E0
1.142364502E0,-5.178527832E-1,2.546829224E0,9.256576538E0
1.144836426E0,-4.885253906E-1,2.547424316E0,9.233825684E0
1.147338867E0,-5.232391357E-1,2.535461426E0,9.234436035E0
1.149810791E0,-5.453796387E-1,2.590530396E0,9.215881348E0
1.152313233E0,-5.346069336E-1,2.553421021E0,9.199722290E0
1.154785156E0,-5.178527832E-1,2.489974976E0,9.189544678E0
1.157257080E0,-5.130615234E-1,2.461837769E0,9.233230591E0
1.159759522E0,-5.160522461E-1,2.412765503E0,9.258972168E0
1.162231446E0,-5.753173828E-1,2.304412842E0,9.186553955E0
1.164703369E0,-5.687255859E-1,2.122467041E0,9.221862793E0
1.167205811E0,-5.453796387E-1,2.087142944E0,9.290100098E0
1.169677735E0,-6.585083008E-1,2.251144409E0,9.387054443E0
1.172180176E0,-6.208038330E-1,2.475006104E0,9.352951050E0
1.174652100E0,-6.477355957E-1,2.634826660E0,9.288299561E0
1.177124024E0,-6.381683350E-1,2.785659790E0,9.241607666E0
1.179626465E0,-6.585083008E-1,2.831146240E0,9.185348511E0
1.182098389E0,-6.261901855E-1,2.778472900E0,9.183547974E0
1.184570313E0,-6.453399658E-1,2.767105103E0,9.163803101E0
1.187072754E0,-6.513366699E-1,2.616867065E0,9.121307373E0
1.189544678E0,-6.908416748E-1,2.588729858E0,9.130279541E0
1.192047119E0,-7.315368652E-1,2.531875610E0,9.095565796E0
1.194519043E0,-7.093963623E-1,2.516311646E0,9.138061523E0
1.197021485E0,-7.141723633E-1,2.556411743E0,9.201507568E0
1.199493408E0,-7.423095703E-1,2.559997559E0,9.135070801E0
1.201965332E0,-7.860107422E-1,2.643798828E0,9.080001831E0
1.204467774E0,-7.692413330E-1,2.691680908E0,9.106933594E0
1.206939697E0,-7.303314209E-1,2.740158081E0,9.015960693E0
1.209411621E0,-7.129821777E-1,2.760513306E0,9.051269531E0
1.211914063E0,-7.087860107E-1,2.627044678E0,9.087188721E0
1.214385987E0,-6.381683350E-1,2.685699463E0,9.088378906E0
1.216888428E0,-5.992584229E-1,2.739562988E0,9.097366333E0
1.219360352E0,-5.830993652E-1,2.762908936E0,9.124298096E0
1.221832276E0,-5.639343262E-1,2.820968628E0,9.075210571E0
1.224334717E0,-5.250396729E-1,2.792236328E0,9.100952148E0
1.226806641E0,-5.172576904E-1,2.821563721E0,9.071029663E0
1.229278565E0,-4.903259277E-1,2.839523315E0,9.080001831E0
1.231781006E0,-4.448242188E-1,2.792236328E0,9.120101929E0
1.234252930E0,-4.496154785E-1,2.768295288E0,9.163803101E0
1.236724854E0,-4.544067383E-1,2.721008301E0,9.167388916E0
1.239227295E0,-4.214935303E-1,2.704849243E0,9.241607666E0
1.241699219E0,-4.262695312E-1,2.647994995E0,9.242813110E0
1.244201660E0,-4.394378662E-1,2.576766968E0,9.335586548E0
1.246673584E0,-4.047241211E-1,2.650375366E0,9.351745605E0
1.249145508E0,-3.885650635E-1,2.575561523E0,9.324813843E0
1.251647949E0,-3.586425781E-1,2.592315674E0,9.433151245E0
1.254119873E0,-3.759918213E-1,2.532470703E0,9.384674072E0
1.256622315E0,-3.251190186E-1,2.501342773E0,9.409210205E0
1.259094238E0,-3.299102783E-1,2.388809204E0,9.398437500E0
1.261566162E0,-3.406829834E-1,2.458847046E0,9.454101562E0
1.264068604E0,-2.736511230E-1,2.476211548E0,9.467864990E0
1.266540528E0,-3.203277588E-1,2.578552246E0,9.422973633E0
1.269012451E0,-2.999877930E-1,2.524093628E0,9.403228760E0
1.271514893E0,-2.910003662E-1,2.532470703E0,9.454696655E0
1.273986817E0,-2.975921631E-1,2.604888916E0,9.418777466E0
1.276489258E0,-3.526458740E-1,2.343322754E0,9.281112671E0
1.278961182E0,-3.801879883E-1,1.708267212E0,9.329605103E0
1.281433106E0,-3.281097412E-1,2.550430298E0,9.642639160E0
1.283935547E0,-2.670593262E-1,2.431320190E0,9.447509766E0
1.286407471E0,-2.814331055E-1,2.589935303E0,9.471450806E0
1.288879395E0,-2.305450439E-1,2.846710205E0,9.355331421E0
1.291381836E0,-2.275543213E-1,2.978988647E0,9.232635498E0
1.293853760E0,-1.551361084E-1,3.017288208E0,9.170989990E0
1.296325684E0,-4.440307617E-2,3.034652710E0,9.102752686E0
1.298828125E0,-1.327514648E-2,3.002929688E0,9.048873901E0
1.301300049E0,5.256652832E-2,2.921524048E0,8.995605469E0
1.303802490E0,8.728027344E-2,2.850296021E0,8.915405273E0
1.306274414E0,9.387207031E-2,2.875442505E0,8.887268066E0
1.308746338E0,1.321716309E-1,2.800018311E0,8.785522461E0
1.311248780E0,1.609039307E-1,2.840118408E0,8.796890259E0
1.313720703E0,1.692810059E-1,2.837722778E0,8.720870972E0
1.316192627E0,1.800537109E-1,2.644989014E0,8.611343384E0
1.318695069E0,2.135772705E-1,2.632431030E0,8.668197632E0
1.321166992E0,2.614593506E-1,2.780273438E0,8.646057129E0
1.323669434E0,2.794189453E-1,2.846115112E0,8.506591797E0
1.326141358E0,1.980133057E-1,2.662353516E0,8.483856201E0
1.328613281E0,2.518768311E-1,2.679107666E0,8.510787964E0
1.331115723E0,2.907867432E-1,2.937088013E0,8.560470581E0
1.333587647E0,2.710418701E-1,2.927505493E0,8.467681885E0
1.336059571E0,2.434997559E-1,2.735977173E0,8.435363770E0
1.338562012E0,2.405090332E-1,2.755722046E0,8.519165039E0
1.341033936E0,3.165283203E-1,3.001129150E0,8.479660034E0
1.343536377E0,3.183288574E-1,2.978988647E0,8.429382324E0
1.346008301E0,2.949829102E-1,2.964019775E0,8.437164307E0
1.348480225E0,2.117767334E-1,2.839523315E0,8.468887329E0
1.350982666E0,1.112213135E-1,2.409759521E0,8.451522827E0
1.353454590E0,1.160125732E-1,2.697067261E0,8.691543579E0
1.355926514E0,1.555175781E-1,2.822174072E0,8.595779419E0
1.358428955E0,4.597473145E-2,2.959838867E0,8.585601807E0
1.360900879E0,1.486206055E-2,2.925720215E0,8.595184326E0
1.363403321E0,-5.278015137E-2,2.744949341E0,8.620910645E0
1.365875244E0,-8.869934082E-2,2.568984985E0,8.725662231E0
1.368347168E0,-5.158996582E-2,2.910156250E0,8.899246216E0
1.370849610E0,-2.345275879E-2,3.001724243E0,8.800476074E0
1.373321533E0,-1.208496094E-2,3.004730225E0,8.765167236E0
1.375793457E0,-3.482055664E-2,3.053207397E0,8.856750488E0
1.378295899E0,-1.907348633E-3,3.038238525E0,8.869918823E0
1.380767822E0,2.502441406E-2,3.006515503E0,8.874710083E0
1.383270264E0,6.513977051E-2,2.930511475E0,8.942932129E0
1.385742188E0,7.650756836E-2,2.859878540E0,8.965682983E0
1.388214112E0,7.351684570E-2,2.813186646E0,8.999206543E0
1.390716553E0,6.034851074E-2,2.829940796E0,9.059051514E0
1.393188477E0,8.787536621E-2,2.829940796E0,9.152435303E0
1.395660401E0,1.172027588E-1,2.772491455E0,9.190139771E0
1.398162842E0,4.179382324E-2,2.782669067E0,9.215881348E0
1.400634766E0,4.119873047E-2,2.841918945E0,9.227844238E0
1.403137207E0,1.425170898E-2,2.808395386E0,9.245208740E0
1.405609131E0,9.565734863E-2,2.785049438E0,9.297271729E0
1.408081055E0,9.565734863E-2,2.790435791E0,9.319427490E0
1.410583496E0,1.070404053E-1,2.793441772E0,9.370300293E0
1.413055420E0,1.375579834E-1,2.795837402E0,9.384674072E0
1.415527344E0,1.483306885E-1,2.732986450E0,9.406814575E0
1.418029785E0,1.465301514E-1,2.698867798E0,9.448120117E0
1.420501709E0,1.321716309E-1,2.703048706E0,9.421783447E0
1.423004151E0,1.118164062E-1,2.718017578E0,9.429565430E0
1.425476074E0,8.248901367E-2,2.761108398E0,9.496002197E0
1.427947998E0,1.411437988E-1,2.825164795E0,9.494201660E0
1.430450440E0,1.776580811E-1,2.832336426E0,9.465469360E0
1.432922363E0,1.776580811E-1,2.826950073E0,9.480438232E0
1.435424805E0,2.075958252E-1,2.795227051E0,9.512756348E0
1.437896729E0,2.578735352E-1,2.794036865E0,9.557647705E0
1.440368653E0,2.877960205E-1,2.754531860E0,9.517547607E0
1.442871094E0,2.937774658E-1,2.749145508E0,9.528320312E0
1.445343018E0,3.452606201E-1,2.799423218E0,9.536697388E0
1.447814942E0,4.003295898E-1,2.823364258E0,9.499588013E0
1.450317383E0,3.997192383E-1,2.825164795E0,9.517547607E0
1.452789307E0,3.829650879E-1,2.823364258E0,9.474456787E0
1.455261231E0,4.284515381E-1,2.852691650E0,9.497192383E0
1.457763672E0,3.949432373E-1,2.899383545E0,9.475051880E0
1.460235596E0,3.590240479E-1,2.837127686E0,9.481628418E0
1.462738037E0,4.015197754E-1,2.837722778E0,9.475051880E0
1.465209961E0,3.781738281E-1,2.862869263E0,9.461883545E0
1.467681885E0,3.302917480E-1,2.856277466E0,9.482833862E0
1.470184326E0,3.386688232E-1,2.850296021E0,9.460678101E0
1.472656250E0,3.099365234E-1,2.813781738E0,9.470855713E0
1.475128174E0,2.704315186E-1,2.817977905E0,9.516342163E0
1.477630615E0,2.261505127E-1,2.837722778E0,9.476242065E0
1.480102539E0,2.536773682E-1,2.841323853E0,9.482833862E0
1.482604981E0,2.063903809E-1,2.824554443E0,9.487625122E0
1.485076905E0,1.345672607E-1,2.804214478E0,9.515151978E0
1.487548828E0,1.106262207E-1,2.756332397E0,9.496002197E0
1.490051270E0,9.506225586E-2,2.737167358E0,9.485229492E0
1.492523194E0,7.470703125E-2,2.731185913E0,9.530120850E0
1.494995117E0,5.316162109E-2,2.774887085E0,9.522338867E0
1.497497559E0,1.545715332E-2,2.762908936E0,9.509170532E0
1.499969483E0,-1.747131348E-2,2.797027588E0,9.484619141E0
1.502471924E0,-5.577087402E-2,2.777877808E0,9.472061157E0
1.504943848E0,-7.971191406E-2,2.776672363E0,9.446319580E0
1.507415772E0,-1.096343994E-1,2.728790283E0,9.443923950E0
1.509918213E0,-1.150360107E-1,2.686294556E0,9.459487915E0
1.512390137E0,-1.329803467E-1,2.750335693E0,9.449905396E0
1.514862061E0,-1.317901611E-1,2.713821411E0,9.408004761E0
1.517364502E0,-1.617126465E-1,2.741958618E0,9.436141968E0
1.519836426E0,-1.533355713E-1,2.734771729E0,9.451110840E0
1.522338867E0,-1.198120117E-1,2.722213745E0,9.431945801E0
1.524810791E0,-1.491394043E-1,2.758712769E0,9.432556152E0
1.527282715E0,-2.036132812E-1,2.718017578E0,9.463073730E0
1.529785156E0,-2.257537842E-1,2.701263428E0,9.469070435E0
1.532257080E0,-2.209777832E-1,2.704254150E0,9.489410400E0
1.534729004E0,-2.568817139E-1,2.698272705E0,9.462478638E0
1.537231446E0,-2.598724365E-1,2.688095093E0,9.455291748E0
1.539703369E0,-2.844238281E-1,2.713226318E0,9.469070435E0
1.542205811E0,-2.634735107E-1,2.698272705E0,9.459487915E0
1.544677735E0,-2.527008057E-1,2.664749146E0,9.366714478E0
1.547149658E0,-2.401275635E-1,2.644393921E0,9.339782715E0
1.549652100E0,-2.167816162E-1,2.684494019E0,9.360122681E0
1.552124024E0,-2.066040039E-1,2.697662354E0,9.339782715E0
1.554595947E0,-2.263641357E-1,2.713821411E0,9.373291016E0
1.557098389E0,-1.982269287E-1,2.733581543E0,9.322418213E0
1.559570313E0,-2.179870605E-1,2.725799561E0,9.391250610E0
1.562072754E0,-1.443634033E-1,2.771881104E0,9.394836426E0
1.564544678E0,-1.383666992E-1,2.743164062E0,9.355941772E0
1.567016602E0,-6.953430176E-2,2.772491455E0,9.376281738E0
1.569519043E0,-4.978942871E-2,2.804214478E0,9.343963623E0
1.571990967E0,-4.739379883E-2,2.812591553E0,9.377487183E0
1.574493408E0,-3.842163086E-2,2.795837402E0,9.349349976E0
1.576965332E0,3.759765625E-2,2.825164795E0,9.363723755E0
1.579437256E0,2.922058105E-2,2.818572998E0,9.386459351E0
1.581939697E0,8.129882812E-2,2.795837402E0,9.376892090E0
1.584411621E0,7.411193848E-2,2.816177368E0,9.404418945E0
1.586883545E0,1.118164062E-1,2.804214478E0,9.343963623E0
1.589385987E0,1.309814453E-1,2.794631958E0,9.369110107E0
1.591857910E0,6.932067871E-2,2.488174438E0,9.322418213E0
1.594329834E0,-7.791137695E-2,1.991973877E0,9.430160522E0
1.596832276E0,-1.327514648E-2,2.215240479E0,9.706680298E0
1.599304199E0,4.179382324E-2,2.755126953E0,9.681549072E0
1.601806641E0,2.803039551E-2,3.049621582E0,9.519348145E0
1.604278565E0,1.365661621E-2,2.993347168E0,9.539093018E0
1.606750488E0,5.197143555E-2,3.165740967E0,9.575012207E0
1.609252930E0,1.411437988E-1,3.198059082E0,9.469665527E0
1.611724854E0,1.872406006E-1,3.110061646E0,9.415191650E0
1.614227295E0,2.434997559E-1,3.041839600E0,9.409210205E0
1.616699219E0,2.536773682E-1,2.944869995E0,9.370895386E0
1.619171143E0,2.854003906E-1,2.903564453E0,9.354141235E0
1.621673584E0,3.189239502E-1,2.902374268E0,9.383468628E0
1.624145508E0,3.584289551E-1,2.929901123E0,9.317626953E0
1.626617432E0,3.536376953E-1,2.825759888E0,9.285903931E0
1.629119873E0,3.709869385E-1,2.761718750E0,9.291290283E0
1.631591797E0,4.009246826E-1,2.913146973E0,9.328399658E0
1.634094238E0,4.673614502E-1,2.956832886E0,9.245208740E0
1.636566162E0,4.601745605E-1,2.771881104E0,9.177566528E0
1.639038086E0,4.799346924E-1,2.698272705E0,9.320617676E0
1.641540528E0,5.236206055E-1,3.017898560E0,9.316436768E0
1.644012451E0,5.451660156E-1,3.057403564E0,9.202713013E0
1.646484375E0,4.871063232E-1,2.789840698E0,9.205703735E0
1.648986817E0,5.110473633E-1,2.911346436E0,9.396636963E0
1.651458740E0,5.314025879E-1,3.059783936E0,9.327209473E0
1.653961182E0,5.475616455E-1,3.121444702E0,9.262557983E0
1.656433106E0,4.924926758E-1,2.857482910E0,9.209884644E0
1.658905030E0,4.673614502E-1,2.885009766E0,9.340377808E0
1.661407471E0,4.757385254E-1,2.981384277E0,9.284713745E0
1.663879395E0,5.278167725E-1,3.058593750E0,9.206893921E0
1.666351319E0,5.212249756E-1,2.951446533E0,9.113525391E0
1.668853760E0,4.865112305E-1,2.620452881E0,9.112930298E0
1.671325684E0,4.410247803E-1,2.797622681E0,9.272140503E0
1.673828125E0,4.889068604E-1,2.922119141E0,9.108139038E0
1.676300049E0,4.661712646E-1,2.994552612E0,8.961486816E0
1.678771973E0,3.608245850E-1,2.615661621E0,8.920791626E0
1.681274414E0,3.709869385E-1,2.792831421E0,9.185348511E0
1.683746338E0,3.368835449E-1,2.813781738E0,9.065643311E0
1.686218262E0,2.913818359E-1,3.006515503E0,9.047088623E0
1.688720703E0,2.321319580E-1,2.772491455E0,8.971664429E0
1.691192627E0,2.153778076E-1,2.840118408E0,9.160217285E0
1.693695069E0,1.998138428E-1,2.923324585E0,9.097366333E0
1.696166992E0,1.878356934E-1,2.913742065E0,9.057266235E0
1.698638916E0,2.231597900E-1,2.927505493E0,9.054870605E0
1.701141358E0,1.992034912E-1,2.773681641E0,9.086593628E0
1.703613281E0,2.189636230E-1,2.747940063E0,9.160812378E0
1.706085205E0,1.932220459E-1,2.758712769E0,9.081802368E0
1.708587647E0,2.004089355E-1,2.755722046E0,9.082992554E0
1.711059571E0,1.830444336E-1,2.696472168E0,9.068634033E0
1.713562012E0,1.411437988E-1,2.661163330E0,9.097961426E0
1.716033936E0,1.710815430E-1,2.685699463E0,9.018356323E0
1.718505860E0,1.704864502E-1,2.716217041E0,9.013565063E0
1.721008301E0,1.303710938E-1,2.673126221E0,9.050674438E0
1.723480225E0,1.483306885E-1,2.706649780E0,9.059661865E0
1.725952149E0,1.932220459E-1,2.706649780E0,9.020156860E0
1.728454590E0,2.057952881E-1,2.692276001E0,8.983047485E0
1.730926514E0,2.022094727E-1,2.641403198E0,9.039901733E0
1.733428955E0,2.087860107E-1,2.659362793E0,9.035705566E0
1.735900879E0,2.794189453E-1,2.628829956E0,9.067428589E0
1.738372803E0,3.159332275E-1,2.585144043E0,9.054260254E0
1.740875244E0,3.069458008E-1,2.627639771E0,9.085983276E0
1.743347168E0,2.913818359E-1,2.616867065E0,9.047088623E0
1.745819092E0,3.608245850E-1,2.674331665E0,9.008178711E0
1.748321533E0,3.608245850E-1,2.642608643E0,8.995605469E0
1.750793457E0,3.584289551E-1,2.643203735E0,8.959701538E0
1.753295899E0,3.955383301E-1,2.691680908E0,8.907028198E0
1.755767822E0,4.452209473E-1,2.691085815E0,8.911819458E0
1.758239746E0,4.416198730E-1,2.720413208E0,8.880691528E0
1.760742188E0,5.044708252E-1,2.805404663E0,8.938751221E0
1.763214112E0,5.619354248E-1,2.879623413E0,8.892059326E0
1.765686035E0,5.828857422E-1,2.940673828E0,8.853759766E0
1.768188477E0,6.283721924E-1,2.988555908E0,8.872314453E0
1.770660401E0,6.708679199E-1,3.006515503E0,8.838790894E0
1.773162842E0,6.660766602E-1,2.994552612E0,8.869308472E0
1.775634766E0,7.043914795E-1,2.953247070E0,8.866317749E0
1.778106690E0,7.672271729E-1,2.921524048E0,8.862731934E0
1.780609131E0,8.348693848E-1,2.837722778E0,8.878890991E0
1.783081055E0,9.216613770E-1,2.698272705E0,8.806472778E0
1.785583496E0,9.605712891E-1,2.576156616E0,8.771148682E0
1.788055420E0,9.539794922E-1,2.537261963E0,8.779525757E0
1.790527344E0,9.456024170E-1,2.412765503E0,8.802871704E0
1.793029785E0,9.545745850E-1,2.408569336E0,8.887863159E0
1.795501709E0,9.551849365E-1,2.479202271E0,8.883682251E0
1.797973633E0,8.935241699E-1,2.472015381E0,8.904632568E0
1.800476074E0,8.857421875E-1,2.446868896E0,9.003387451E0
1.802947998E0,8.432464600E-1,2.331359863E0,9.104553223E0
1.805419922E0,8.205108643E-1,2.329559326E0,9.156616211E0
1.807922363E0,8.229064941E-1,2.277481079E0,9.174575806E0
1.810394287E0,8.402557373E-1,2.232589722E0,9.202102661E0
1.812896729E0,8.432464600E-1,2.169143677E0,9.252990723E0
1.815368653E0,8.630065918E-1,2.159576416E0,9.305053711E0
1.817840576E0,8.546295166E-1,2.100311279E0,9.318832397E0
1.820343018E0,9.240570068E-1,2.077575684E0,9.386459351E0
1.822814942E0,9.503936768E-1,2.062606812E0,9.424179077E0
1.825317383E0,9.910888672E-1,2.017120361E0,9.505569458E0
1.827789307E0,1.022811890E0,2.040466309E0,9.495391846E0
1.830261231E0,1.088653564E0,2.000961304E0,9.506774902E0
1.832763672E0,1.169464111E0,2.011734009E0,9.603134155E0
1.835235596E0,1.173645020E0,2.039855957E0,9.563629150E0
1.837707520E0,1.301147461E0,2.078170776E0,9.558853149E0
1.840209961E0,1.367584229E0,2.105697632E0,9.570220947E0
1.842681885E0,1.466339111E0,2.140411377E0,9.578002930E0
1.845153809E0,1.596832275E0,2.170349121E0,9.538497925E0
1.847656250E0,1.702774048E0,2.229598999E0,9.564239502E0
1.850128174E0,1.798538208E0,2.272689819E0,9.556457520E0
1.852630615E0,1.900283813E0,2.366073608E0,9.566619873E0
1.855102539E0,1.975708008E0,2.397201538E0,9.547470093E0
1.857574463E0,2.151077271E0,2.376251221E0,9.421173096E0
1.860076905E0,2.277969360E0,2.410369873E0,9.363723755E0
1.862548828E0,2.452148438E0,2.384033203E0,9.537292480E0
1.865020752E0,2.755615234E0,2.252944946E0,9.056655884E0
1.867523194E0,2.211532593E0,2.404373169E0,9.949691772E0
1.869995117E0,2.634704590E0,1.164184570E0,9.812026978E0
1.872497559E0,2.747833252E0,1.181533813E0,1.024179077E1
1.874969483E0,2.965118408E0,1.429336548E0,9.933532715E0
1.877441406E0,2.474899292E0,1.231216431E0,9.868896484E0
1.879943848E0,2.618545532E0,1.503555298E0,9.607925415E0
1.882415772E0,2.639495850E0,1.807617188E0,9.559448242E0
1.884887696E0,2.715515137E0,1.880645752E0,9.561233521E0
1.887390137E0,2.777770996E0,1.846527100E0,9.662994385E0
1.889862061E0,2.913040161E0,1.811813354E0,9.682739258E0
1.892364502E0,3.065673828E0,1.486801147E0,9.732421875E0
1.894836426E0,3.397262573E0,-1.696884155E0,8.915405273E0
1.897308350E0,3.082427979E0,4.782409668E-1,9.103942871E0
1.899810791E0,3.157852173E0,2.067398071E0,1.009036255E1
1.902282715E0,3.239242554E0,2.092529297E0,8.903427124E0
1.904785156E0,2.966903687E0,2.242172241E0,8.483856201E0
1.907257080E0,3.232666016E0,2.725799561E0,9.078216553E0
1.909729004E0,3.518173218E0,2.434310913E0,9.677963257E0
1.912231446E0,3.664810181E0,2.167953491E0,9.470260620E0
1.914703369E0,3.616333008E0,1.813003540E0,9.321823120E0
1.917175293E0,3.566055298E0,1.616088867E0,9.360733032E0
1.919677735E0,3.693542480E0,1.363494873E0,9.235031128E0
1.922149658E0,3.889266968E0,1.058837891E0,8.911209106E0
1.924652100E0,3.853363037E0,2.065002441E0,9.228439331E0
1.927124024E0,4.106552124E0,1.647811890E0,9.223052979E0
1.929595947E0,4.038314819E0,1.860290527E0,9.314636230E0
1.932098389E0,4.166397095E0,1.151611328E0,9.363723755E0
1.934570313E0,4.327407837E0,1.161193848E0,9.180557251E0
1.937042237E0,4.359741211E0,5.572509766E-1,9.532516479E0
1.939544678E0,4.533309937E0,-7.901000977E-2,9.542678833E0
1.942016602E0,4.957687378E0,1.080978394E0,1.067274475E1
1.944519043E0,5.131271362E0,1.092361450E0,9.882064819E0
1.946990967E0,5.154602051E0,8.930358887E-1,1.005982971E1
1.949462891E0,5.183944702E0,1.022323608E0,1.042555237E1
1.951965332E0,5.462860107E0,4.902191162E-1,1.018792725E1
1.954437256E0,5.688522339E0,5.955657959E-1,1.013883972E1
1.956909180E0,5.905792236E0,5.758056641E-1,1.038963318E1
1.959411621E0,6.012924194E0,7.332305908E-1,1.030523682E1
1.961883545E0,6.202667236E0,5.608367920E-1,1.026034546E1
1.964385987E0,6.281082153E0,5.608367920E-1,1.041896057E1
1.966857910E0,6.448669434E0,4.225769043E-1,1.042016602E1
1.969329834E0,6.581558228E0,3.531494141E-1,1.054226685E1
1.971832276E0,6.677322388E0,2.873077393E-1,1.065299988E1
1.974304199E0,6.795242310E0,3.591308594E-1,1.074217224E1
1.976776123E0,6.873641968E0,3.842773438E-1,1.060092163E1
1.979278565E0,6.923324585E0,3.262176514E-1,1.069668579E1
1.981750488E0,6.985580444E0,2.232666016E-1,1.069668579E1
1.984252930E0,7.039443970E0,9.098815918E-2,1.072003174E1
1.986724854E0,7.055603027E0,2.023162842E-1,1.076074219E1
1.989196778E0,7.159759521E0,3.603210449E-1,1.076492310E1
1.991699219E0,7.108276367E0,2.388153076E-1,1.054644775E1
1.994171143E0,7.239959717E0,4.441223145E-1,1.086189270E1
1.996643067E0,7.426712036E0,8.265991211E-1,1.050096130E1
1.999145508E0,7.487167358E0,7.882995605E-1,1.010891724E1
2.001617432E0,7.549407959E0,6.865386963E-1,1.014183044E1
2.004119873E0,7.507507324E0,4.219818115E-1,1.022503662E1
2.006591797E0,7.424911499E0,-9.936523438E-2,9.723449707E0
2.009063721E0,7.469207764E0,-2.645568848E-1,1.011370850E1
2.011566162E0,7.388397217E0,-2.747344971E-1,1.025256348E1
2.014038086E0,7.261505127E0,-1.107330322E-1,1.016218567E1
2.016510010E0,6.932907104E0,-2.064971924E-1,1.021127319E1
2.019012451E0,6.804214478E0,-2.573699951E-1,1.021127319E1
2.021484375E0,6.563598633E0,-2.843170166E-1,1.016937256E1
2.023986817E0,6.487579346E0,-2.771301270E-1,1.035371399E1
2.026458740E0,6.258331299E0,-3.986358643E-1,1.047642517E1
2.028930664E0,6.092544556E0,-3.902587891E-1,1.066735840E1
2.031433106E0,6.023101807E0,-2.412109375E-1,1.064462280E1
2.033905030E0,5.985397339E0,-1.801605225E-1,1.075175476E1
2.036376953E0,5.895614624E0,-1.843566895E-1,1.084931946E1
2.038879395E0,5.892028809E0,-2.483978271E-1,1.090379333E1
2.041351319E0,5.833969116E0,-4.614868164E-1,1.098100281E1
2.043853760E0,5.662185669E0,-4.830322266E-1,1.131738281E1
2.046325684E0,5.552642822E0,-4.088134766E-1,1.119288635E1
2.048797608E0,5.561630249E0,-3.884582520E-1,1.102468872E1
2.051300049E0,5.564010620E0,-5.135498047E-1,1.107617188E1
2.053771973E0,5.520324707E0,-5.811920166E-1,1.122520447E1
2.056243897E0,5.430541992E0,-7.182617188E-1,1.118092346E1
2.058746338E0,5.352127075E0,-8.559265137E-1,1.125753784E1
2.061218262E0,5.208480835E0,-8.421630859E-1,1.137484741E1
2.063720703E0,5.187530518E0,-8.056488037E-1,1.129643250E1
2.066192627E0,4.986419678E0,-7.164611816E-1,1.137245178E1
2.068664551E0,4.852340698E0,-6.661834717E-1,1.135987854E1
2.071166992E0,4.651229858E0,-7.266387939E-1,1.134013367E1
2.073638916E0,4.517745972E0,-7.499847412E-1,1.145805359E1
2.076110840E0,4.334594727E0,-7.230529785E-1,1.158793640E1
2.078613281E0,4.146057129E0,-7.505798340E-1,1.157894897E1
2.081085205E0,3.967681885E0,-8.295898438E-1,1.167950439E1
2.083587647E0,3.846176147E0,-9.492950439E-1,1.169746399E1
2.086059571E0,3.686370850E0,-1.098937988E0,1.169207764E1
2.088531494E0,3.563659668E0,-1.125869751E0,1.173397827E1
2.091033936E0,3.349380493E0,-1.080383301E0,1.186386108E1
2.093505860E0,3.252410889E0,-8.678894043E-1,1.172679138E1
2.095977783E0,2.970504761E0,-9.127807617E-1,1.186746216E1
2.098480225E0,2.722702026E0,-1.073791504E0,1.195364380E1
2.100952149E0,2.523376465E0,-1.176147461E0,1.174954224E1
2.103454590E0,2.231887817E0,-1.282699585E0,1.169746399E1
2.105926514E0,2.032577515E0,-1.405990601E0,1.163102722E1
2.108398438E0,1.871566772E0,-1.352722168E0,1.152627563E1
2.110900879E0,1.732696533E0,-1.261749268E0,1.157955933E1
2.113372803E0,1.538772583E0,-1.191116333E0,1.155201721E1
2.115844727E0,1.425048828E0,-1.090560913E0,1.151132202E1
2.118347168E0,1.313110352E0,-1.091751099E0,1.145625305E1
2.120819092E0,1.177246094E0,-1.155197144E0,1.137544250E1
2.123321533E0,9.599609375E-1,-1.151016235E0,1.132456970E1
2.125793457E0,8.127288818E-1,-1.204284668E0,1.131439209E1
2.128265381E0,6.678771973E-1,-1.230026245E0,1.128565979E1
2.130767822E0,5.355987549E-1,-1.254562378E0,1.121025085E1
2.133239746E0,4.344329834E-1,-1.219253540E0,1.115757751E1
2.135711670E0,3.889465332E-1,-1.137237549E0,1.104086304E1
2.138214112E0,3.320922852E-1,-1.082183838E0,1.092652893E1
2.140686035E0,2.417144775E-1,-9.792327881E-1,1.081401062E1
2.143188477E0,1.680908203E-1,-8.876495361E-1,1.072361755E1
2.145660401E0,6.452941895E-2,-7.649536133E-1,1.064102173E1
2.148132324E0,-7.019042969E-4,-6.440429688E-1,1.056022644E1
2.150634766E0,-7.911682129E-2,-6.446380615E-1,1.044949341E1
2.153106690E0,-2.006225586E-1,-6.350555420E-1,1.028369141E1
2.155578613E0,-2.963867188E-1,-5.392913818E-1,1.019869995E1
2.158081055E0,-3.484649658E-1,-5.285186768E-1,1.016517639E1
2.160552979E0,-4.244842529E-1,-4.477081299E-1,1.011909485E1
2.163055420E0,-5.615539551E-1,-3.878631592E-1,1.000537109E1
2.165527344E0,-7.602691650E-1,-3.507537842E-1,9.919174194E0
2.167999268E0,-8.332824707E-1,-2.328338623E-1,9.844360352E0
2.170501709E0,-9.224700928E-1,-1.819610596E-1,9.864105225E0
2.172973633E0,-1.017639160E0,-1.891479492E-1,9.877868652E0
2.175445557E0,-1.134963989E0,-2.513885498E-1,9.843154907E0
2.177947998E0,-1.256469727E0,-3.160400391E-1,9.816818237E0
2.180419922E0,-1.364196777E0,-3.064575195E-1,9.725250244E0
2.182922363E0,-1.418075562E0,-3.854675293E-1,9.697708130E0
2.185394287E0,-1.483917236E0,-4.010314941E-1,9.666580200E0
2.187866211E0,-1.591659546E0,-3.770904541E-1,9.675567627E0
2.190368653E0,-1.710769653E0,-3.016662598E-1,9.652816772E0
2.192840576E0,-1.722732544E0,-2.543792725E-1,9.618698120E0
2.195343018E0,-1.720932007E0,-2.777252197E-1,9.574401855E0
2.197814942E0,-1.733505249E0,-2.675476074E-1,9.556457520E0
2.200286865E0,-1.773010254E0,-2.591705322E-1,9.576202393E0
2.202789307E0,-1.823287964E0,-3.315887451E-1,9.603744507E0
2.205261231E0,-1.910079956E0,-3.549346924E-1,9.627075195E0
2.207733155E0,-1.956771851E0,-3.980407715E-1,9.706680298E0
2.210235596E0,-2.032791138E0,-3.722991943E-1,9.743194580E0
2.212707520E0,-2.143508911E0,-3.675079346E-1,9.778518677E0
2.215179444E0,-2.177627563E0,-3.483581543E-1,9.767745972E0
2.217681885E0,-2.174041748E0,-3.615264893E-1,9.721054077E0
2.220153809E0,-2.223724365E0,-3.854675293E-1,9.692321777E0
2.222656250E0,-2.305130005E0,-3.537445068E-1,9.709075928E0
2.225128174E0,-2.284179688E0,-2.472076416E-1,9.651626587E0
2.227600098E0,-2.354797363E0,-2.280426025E-1,9.603744507E0
2.230102539E0,-2.424240112E0,-2.172698975E-1,9.501983643E0
2.232574463E0,-2.445190430E0,-1.244964600E-1,9.441528320E0
2.235046387E0,-2.457748413E0,-9.158325195E-2,9.450500488E0
2.237548828E0,-2.531372070E0,-3.950500488E-2,9.470855713E0
2.240020752E0,-2.561309814E0,2.693176270E-2,9.416397095E0
2.242523194E0,-2.540954590E0,1.914978027E-2,9.432556152E0
2.244995117E0,-2.563095093E0,5.267333984E-2,9.374496460E0
2.247467041E0,-2.574478149E0,5.686950684E-2,9.343963623E0
2.249969483E0,-2.519409180E0,7.063293457E-2,9.252380371E0
2.252441406E0,-2.496658325E0,7.901000977E-2,9.193725586E0
2.254913330E0,-2.434417725E0,5.686950684E-2,9.093765259E0
2.257415772E0,-2.417053223E0,1.430511475E-1,8.957305908E0
2.259887696E0,-2.330261230E0,1.897430420E-1,8.744812012E0
2.262390137E0,-2.297943115E0,1.101379395E-1,8.728652954E0
2.264862061E0,-2.225524902E0,1.023559570E-1,8.560470581E0
2.267333985E0,-2.157287598E0,2.035522461E-2,8.270767212E0
2.269836426E0,-2.177627563E0,3.053283691E-2,8.239639282E0
2.272308350E0,-2.200973511E0,2.633666992E-2,8.081024170E0
2.274810791E0,-2.242874146E0,6.823730469E-2,7.988845825E0
2.277282715E0,-2.169250488E0,7.241821289E-2,7.831436157E0
2.279754639E0,-2.132736206E0,1.346740723E-1,7.732070923E0
2.282257080E0,-2.077072144E0,1.203155518E-1,7.572250366E0
2.284729004E0,-1.998062134E0,2.202606201E-1,7.419021606E0
2.287200928E0,-1.991485596E0,2.047119141E-1,7.256225586E0
2.289703369E0,-1.965744019E0,1.257019043E-1,7.108383179E0
2.292175293E0,-2.044158936E0,2.196655273E-1,6.997650146E0
2.294647217E0,-2.071090698E0,2.950897217E-1,6.774383545E0
2.297149658E0,-2.143508911E0,4.566955566E-1,6.570877075E0
2.299621582E0,-2.295547485E0,5.195465088E-1,6.436203003E0
2.302124024E0,-2.380538940E0,5.584411621E-1,6.240478516E0
2.304595947E0,-2.460144043E0,5.291137695E-1,6.177032471E0
2.307067871E0,-2.545745850E0,5.787963867E-1,6.032180786E0
2.309570313E0,-2.708541870E0,6.212921143E-1,5.937622070E0
2.312042237E0,-2.831848145E0,5.823974609E-1,5.895111084E0
2.314544678E0,-2.934799194E0,4.836273193E-1,5.808334351E0
2.317016602E0,-3.088027954E0,3.687133789E-1,5.865783691E0
2.319488526E0,-3.286148071E0,3.878631592E-1,5.876556396E0
2.321990967E0,-3.671615601E0,3.369903564E-1,5.910079956E0
2.324462891E0,-3.694366455E0,2.525939941E-1,5.891525269E0
2.326965332E0,-3.518386841E0,3.363800049E-1,5.922653198E0
2.329437256E0,-3.378921509E0,3.046569824E-1,5.846038818E0
2.331909180E0,-3.927795410E0,2.394104004E-2,5.959167480E0
2.334411621E0,-4.169006348E0,-4.190063477E-2,6.119567871E0
2.336883545E0,-4.388671875E0,-1.250915527E-1,6.084854126E0
2.339355469E0,-4.352172852E0,-2.837066650E-1,6.037567139E0
2.341857910E0,-4.416213989E0,-5.614318848E-1,5.940612793E0
2.344329834E0,-4.472473145E0,-7.236480713E-1,5.941802979E0
2.346801758E0,-4.446136475E0,-8.601226807E-1,5.950790405E0
2.349304199E0,-4.500610352E0,-1.069610596E0,6.168655396E0
2.351806641E0,-4.663406372E0,-9.115905762E-1,5.926834106E0
2.354278565E0,-4.796890259E0,-7.835083008E-1,5.835266113E0
2.356750488E0,-4.965682983E0,-7.703399658E-1,5.677841187E0
2.359222412E0,-5.049484253E0,-8.852539062E-1,5.579681396E0
2.361724854E0,-5.077011108E0,-1.020523071E0,5.432434082E0
2.364196778E0,-5.183547974E0,-1.134246826E0,5.209777832E0
2.366668701E0,-5.342163086E0,-1.262939453E0,5.248092651E0
2.369171143E0,-5.518737793E0,-1.376068115E0,4.844665527E0
2.371643067E0,-5.809036255E0,-1.529891968E0,4.775833130E0
2.374145508E0,-5.986801147E0,-1.563415527E0,4.435256958E0
2.376617432E0,-6.252563477E0,-1.537673950E0,4.242523193E0
2.379089356E0,-6.541061401E0,-1.535278320E0,4.126998901E0
2.381591797E0,-6.830764771E0,-1.499969482E0,3.867233276E0
2.384063721E0,-7.036071777E0,-1.471237183E0,3.520675659E0
2.386535645E0,-7.258132935E0,-1.429336548E0,3.171112061E0
2.389038086E0,-7.429321289E0,-1.393417358E0,2.967605591E0
2.391510010E0,-7.559799194E0,-1.312026978E0,2.682098389E0
2.394012451E0,-7.628036499E0,-1.320999146E0,2.375045776E0
2.396484375E0,-7.837524414E0,-1.359313965E0,2.209243774E0
2.398956299E0,-7.945266724E0,-1.477813721E0,1.961441040E0
2.401458740E0,-7.972793579E0,-1.497573853E0,1.796249390E0
2.403930664E0,-8.063781738E0,-1.599929810E0,1.648406982E0
2.406402588E0,-8.219406128E0,-1.687316895E0,1.321594238E0
2.408905030E0,-8.349884033E0,-1.667556763E0,1.176742554E0
2.411376953E0,-8.424697876E0,-1.638229370E0,1.084564209E0
2.413879395E0,-8.412139893E0,-1.671752930E0,1.001968384E0
2.416351319E0,-8.418716431E0,-1.764526367E0,9.091949463E-1
2.418823242E0,-8.419311523E0,-1.935119629E0,8.750762939E-1
2.421325684E0,-8.481567383E0,-2.042846680E0,8.295898438E-1
2.423797608E0,-8.552795410E0,-2.302627563E0,7.116699219E-1
2.426269531E0,-8.689270020E0,-2.567184448E0,6.081237793E-1
2.428771973E0,-8.816757202E0,-2.696472168E0,5.243225098E-1
2.431243897E0,-9.028045654E0,-2.873046875E0,3.686981201E-1
2.433746338E0,-9.266265869E0,-3.111267090E0,2.879028320E-1
2.436218262E0,-9.511077881E0,-3.244735718E0,1.598052979E-1
2.438690186E0,-9.778030396E0,-3.318954468E0,1.794433594E-2
2.441192627E0,-1.012997437E1,-3.287841797E0,-1.436614990E-1
2.443664551E0,-1.058666992E1,-3.257308960E0,-2.771301270E-1
2.446166992E0,-1.101164246E1,-3.295013428E0,-3.345947266E-1
2.448638916E0,-1.141685486E1,-3.436279297E0,-4.812316895E-1
2.451110840E0,-1.177359009E1,-3.456024170E0,-7.098846436E-1
2.453613281E0,-1.219796753E1,-3.418319702E0,-8.206176758E-1
2.456085205E0,-1.259181213E1,-3.453628540E0,-1.091766357E0
2.458557129E0,-1.294795227E1,-3.382400513E0,-1.340164185E0
2.461059571E0,-1.328015137E1,-3.219604492E0,-1.606521606E0
2.463531494E0,-1.360276794E1,-3.073562622E0,-1.843536377E0
2.466003418E0,-1.396128845E1,-2.971801758E0,-2.016525269E0
2.468505860E0,-1.425518799E1,-2.860473633E0,-2.242172241E0
2.470977783E0,-1.452214050E1,-2.787445068E0,-2.419342041E0
2.473480225E0,-1.475616455E1,-2.789245605E0,-2.665344238E0
2.475952149E0,-1.497523499E1,-2.808990479E0,-2.716827393E0
2.478424072E0,-1.519491577E1,-2.847900391E0,-2.812591553E0
2.480926514E0,-1.534574890E1,-2.795822144E0,-2.947265625E0
2.483398438E0,-1.546246338E1,-2.813186646E0,-3.027465820E0
2.485900879E0,-1.554325867E1,-2.861663818E0,-3.080139160E0
2.488372803E0,-1.565579224E1,-2.860473633E0,-3.057998657E0
2.490844727E0,-1.571325684E1,-2.870651245E0,-3.029861450E0
2.493347168E0,-1.569769287E1,-3.025665283E0,-3.010116577E0
2.495819092E0,-1.561688232E1,-3.132812500E0,-2.958633423E0
2.498291016E0,-1.555583191E1,-3.152557373E0,-2.925125122E0
2.500793457E0,-1.558276367E1,-3.081329346E0,-2.927520752E0
2.503265381E0,-1.568511963E1,-3.104080200E0,-3.032257080E0
2.505737305E0,-1.594070435E1,-3.288436890E0,-3.153762817E0
2.508239746E0,-1.614900208E1,-3.448242188E0,-3.278869629E0
2.510711670E0,-1.652847290E1,-3.575134277E0,-3.497329712E0
2.513214112E0,-1.703366089E1,-3.572753906E0,-3.661331177E0
2.515686035E0,-1.750411987E1,-3.560775757E0,-3.849884033E0
2.518157959E0,-1.790634155E1,-3.587112427E0,-3.991744995E0
2.520660401E0,-1.831994629E1,-3.534439087E0,-4.197631836E0
2.523132324E0,-1.876885986E1,-3.454833984E0,-4.311965942E0
2.525634766E0,-1.910763550E1,-3.477569580E0,-4.429275513E0
2.528106690E0,-1.938894653E1,-3.479370117E0,-4.610641479E0
2.530578613E0,-1.965650940E1,-3.515884399E0,-4.828506470E0
2.533081055E0,-1.990190125E1,-3.567352295E0,-5.030822754E0
2.535552979E0,-1.991387939E1,-3.583526611E0,-5.131378174E0
2.538024903E0,-1.991088867E1,-3.540420532E0,-5.178070068E0
2.540527344E0,-1.991387939E1,-3.501525879E0,-5.270248413E0
2.542999268E0,-1.991387939E1,-3.456024170E0,-5.422866821E0
2.545471192E0,-1.991387939E1,-3.484161377E0,-5.522827148E0
2.547973633E0,-1.991387939E1,-3.544616699E0,-5.577301025E0
2.550445557E0,-1.991387939E1,-3.518875122E0,-5.623977661E0
2.552947998E0,-1.991387939E1,-3.540420532E0,-5.655700684E0
2.555419922E0,-1.991387939E1,-3.563766479E0,-5.537200928E0
2.557891846E0,-1.982229614E1,-3.504516602E0,-5.463577271E0
2.560394287E0,-1.938595581E1,-3.462020874E0,-5.404922485E0
2.562866211E0,-1.875807190E1,-3.451843262E0,-5.381576538E0
2.565368653E0,-1.824931335E1,-3.441665649E0,-5.398330688E0
2.567840576E0,-1.796321106E1,-3.552398682E0,-5.516845703E0
2.570312500E0,-1.763639832E1,-3.667922974E0,-5.627578735E0
2.572814942E0,-1.773754883E1,-3.712814331E0,-5.606628418E0
2.575286865E0,-1.801287842E1,-3.787033081E0,-5.421676636E0
2.577758789E0,-1.840434265E1,-3.939056396E0,-5.319320679E0
2.580261231E0,-1.885264587E1,-4.150344849E0,-5.316925049E0
2.582733155E0,-1.920220947E1,-4.455612183E0,-5.182846069E0
2.585235596E0,-1.966249084E1,-4.689636230E0,-5.020050049E0
2.587707520E0,-1.991387939E1,-4.975143433E0,-4.908721924E0
2.590179444E0,-1.991387939E1,-5.237319946E0,-4.817138672E0
2.592681885E0,-1.991207886E1,-5.743087769E0,-4.824920654E0
2.595153809E0,-1.991387939E1,-6.087249756E0,-4.802169800E0
2.597656250E0,-1.991387939E1,-6.262634277E0,-4.894943237E0
2.600128174E0,-1.991387939E1,-6.327880859E0,-4.954803467E0
2.602600098E0,-1.991387939E1,-6.467330933E0,-5.128982544E0
2.605102539E0,-1.991387939E1,-6.639724731E0,-5.352249146E0
2.607574463E0,-1.991387939E1,-6.739074707E0,-5.429458618E0
2.610046387E0,-1.991387939E1,-6.861175537E0,-5.422866821E0
2.612548828E0,-1.991387939E1,-7.009017944E0,-5.448013306E0
2.615020752E0,-1.991387939E1,-7.158660889E0,-5.539581299E0
2.617492676E0,-1.991387939E1,-7.317276001E0,-5.635360718E0
2.619995117E0,-1.991387939E1,-7.378921509E0,-5.649124146E0
2.622467041E0,-1.991387939E1,-7.558486938E0,-5.832275391E0
2.624969483E0,-1.991387939E1,-7.575256348E0,-5.995086670E0
2.627441406E0,-1.991387939E1,-7.657852173E0,-6.111206055E0
2.629913330E0,-1.991387939E1,-7.803298950E0,-6.218338013E0
2.632415772E0,-1.991387939E1,-7.903259277E0,-6.303939819E0
2.634887696E0,-1.991387939E1,-8.052902222E0,-6.356018066E0
2.637359619E0,-1.991387939E1,-8.121734619E0,-6.421249390E0
2.639862061E0,-1.991387939E1,-8.266586304E0,-6.488891602E0
2.642333985E0,-1.991387939E1,-8.337799072E0,-6.497863770E0
2.644836426E0,-1.991387939E1,-8.483856201E0,-6.477523804E0
2.647308350E0,-1.991387939E1,-8.592193604E0,-6.293762207E0
2.649780274E0,-1.991387939E1,-8.896255493E0,-6.126174927E0
2.652282715E0,-1.991387939E1,-9.136871338E0,-5.755065918E0
2.654754639E0,-1.991387939E1,-9.543884277E0,-5.229537964E0
2.657226563E0,-1.991387939E1,-9.920379639E0,-4.864425659E0
2.659729004E0,-1.991387939E1,-1.024778748E1,-4.299392700E0
2.662200928E0,-1.991387939E1,-1.058117676E1,-3.945648193E0
2.664672852E0,-1.991387939E1,-1.092175293E1,-3.629013062E0
2.667175293E0,-1.991387939E1,-1.129882812E1,-3.333923340E0
2.669647217E0,-1.991387939E1,-1.173397827E1,-3.107086182E0
2.672149658E0,-1.991387939E1,-1.202548218E1,-2.735977173E0
2.674621582E0,-1.991387939E1,-1.223736572E1,-2.382232666E0
2.677093506E0,-1.991387939E1,-1.236126709E1,-2.075775146E0
2.679595947E0,-1.991387939E1,-1.274552917E1,-1.973419189E0
2.682067871E0,-1.991387939E1,-1.323036194E1,-1.906982422E0
2.684570313E0,-1.991387939E1,-1.362060547E1,-1.601119995E0
2.687042237E0,-1.991387939E1,-1.389056396E1,-1.306045532E0
2.689514160E0,-1.991387939E1,-1.415332031E1,-9.858245850E-1
2.692016602E0,-1.991387939E1,-1.444841003E1,-7.044982910E-1
2.694488526E0,-1.991387939E1,-1.474288940E1,-4.112091064E-1
2.696960449E0,-1.991387939E1,-1.509962463E1,-7.661437988E-2
2.699462891E0,-1.991387939E1,-1.539891052E1,2.220611572E-1
2.701934815E0,-1.991387939E1,-1.573289490E1,4.812316895E-1
2.704437256E0,-1.991387939E1,-1.617761230E1,6.721649170E-1
2.706909180E0,-1.991387939E1,-1.667919922E1,9.235534668E-1
2.709381104E0,-1.991387939E1,-1.725740051E1,1.088165283E0
2.711883545E0,-1.991387939E1,-1.787330627E1,1.355712891E0
2.714355469E0,-1.991387939E1,-1.857061768E1,1.631042480E0
2.716827393E0,-1.991387939E1,-1.924099731E1,1.925537109E0
2.719329834E0,-1.991387939E1,-1.996464539E1,2.272689819E0
2.721801758E0,-1.991387939E1,-2.061288452E1,2.470809937E0
2.724304199E0,-1.991387939E1,-2.083853149E1,2.700653076E0
2.726776123E0,-1.991387939E1,-2.083853149E1,2.820968628E0
2.729248047E0,-1.991387939E1,-2.083314514E1,2.449264526E0
2.731750488E0,-1.991387939E1,-2.083853149E1,2.203262329E0
2.734222412E0,-1.991387939E1,-2.083853149E1,1.956054688E0
2.736694336E0,-1.991387939E1,-2.083853149E1,1.653793335E0
2.739196778E0,-1.991387939E1,-2.083853149E1,1.419754028E0
2.741668701E0,-1.991387939E1,-2.083853149E1,1.018127441E0
2.744171143E0,-1.991387939E1,-2.083853149E1,7.254333496E-1
2.746643067E0,-1.991387939E1,-2.083853149E1,5.931549072E-1
2.749114990E0,-1.991387939E1,-2.083853149E1,4.129943848E-1
2.751617432E0,-1.991387939E1,-2.083853149E1,1.831512451E-1
2.754089356E0,-1.991387939E1,-2.083853149E1,-1.173248291E-1
2.756561280E0,-1.991387939E1,-2.083853149E1,-8.349761963E-1
2.759063721E0,-1.991387939E1,-2.083853149E1,-1.071411133E0
2.761535645E0,-1.991387939E1,-2.083853149E1,-9.618682861E-1
2.764038086E0,-1.991387939E1,-2.083853149E1,-7.535858154E-1
2.766510010E0,-1.991387939E1,-2.083853149E1,-7.954711914E-1
2.768981934E0,-1.991387939E1,-2.083853149E1,-1.067214966E0
2.771484375E0,-1.991387939E1,-2.083853149E1,-1.255157471E0
2.773956299E0,-1.991387939E1,-2.083853149E1,-1.268325806E0
2.776428223E0,-1.991387939E1,-2.083853149E1,-1.162994385E0
2.778930664E0,-1.991387939E1,-2.083853149E1,-7.649536133E-1
2.781402588E0,-1.991387939E1,-2.083853149E1,-2.950897217E-1
2.783905030E0,-1.991387939E1,-2.083853149E1,4.848175049E-1
2.786376953E0,-1.991387939E1,-2.083853149E1,1.260543823E0
2.788848877E0,-1.991387939E1,-2.083853149E1,2.063201904E0
2.791351319E0,-1.991387939E1,-2.083853149E1,2.711425781E0
2.793823242E0,-1.991387939E1,-2.083853149E1,3.423110962E0
2.796295166E0,-1.991387939E1,-2.083853149E1,4.129989624E0
2.798797608E0,-1.991387939E1,-2.083853149E1,4.653121948E0
2.801269531E0,-1.991387939E1,-2.083853149E1,5.297760010E0
2.803771973E0,-1.991387939E1,-2.083853149E1,5.910675049E0
2.806243897E0,-1.991387939E1,-2.083853149E1,6.616378784E0
2.808715821E0,-1.991387939E1,-2.083853149E1,7.105392456E0
2.811218262E0,-1.991387939E1,-2.083853149E1,7.775756836E0
2.813690186E0,-1.991387939E1,-2.083853149E1,8.385681152E0
2.816162110E0,-1.991387939E1,-2.083853149E1,9.004592896E0
2.818664551E0,-1.991387939E1,-2.083853149E1,9.806045532E0
2.821136475E0,-1.991387939E1,-2.083853149E1,1.043272400E1
2.823638916E0,-1.991387939E1,-2.083853149E1,1.154843140E1
2.826110840E0,-1.991387939E1,-2.083853149E1,1.305317688E1
2.828582764E0,-1.991387939E1,-2.083853149E1,1.381393433E1
2.831085205E0,-1.991387939E1,-2.083853149E1,1.474528503E1
2.833557129E0,-1.991387939E1,-2.083853149E1,1.603337097E1
2.836059571E0,-1.991387939E1,-2.083853149E1,1.667561340E1
2.838531494E0,-1.991387939E1,-2.083853149E1,1.756625366E1
2.841003418E0,-1.991387939E1,-2.083853149E1,1.630511475E1
2.843505860E0,-1.991387939E1,-2.083853149E1,1.794035339E1
2.845977783E0,-1.991387939E1,-2.083853149E1,1.837130737E1
2.848449707E0,-1.991387939E1,-2.083853149E1,1.790443420E1
2.850952149E0,-1.991387939E1,-2.083853149E1,1.901654053E1
2.853424072E0,-1.991387939E1,-2.083853149E1,1.901654053E1
2.855926514E0,-1.991387939E1,-2.083853149E1,1.899200439E1
2.858398438E0,-1.991387939E1,-2.083853149E1,1.901654053E1
2.860870362E0,-1.991387939E1,-2.083853149E1,1.901654053E1
2.863372803E0,-1.991387939E1,-2.083853149E1,1.901594543E1
2.865844727E0,-1.991387939E1,-2.083853149E1,1.901654053E1
2.868316651E0,-1.991387939E1,-2.083853149E1,1.901654053E1
2.870819092E0,-1.991387939E1,-2.083853149E1,1.901654053E1
2.873291016E0,-1.991387939E1,-2.083853149E1,1.901654053E1
2.875762940E0,-1.990908813E1,-2.083853149E1,1.901654053E1
2.878265381E0,-1.911959839E1,-2.083853149E1,1.901654053E1
2.880737305E0,-1.711267090E1,-2.083853149E1,1.901654053E1
2.883239746E0,-1.515002441E1,-2.083853149E1,1.901654053E1
2.885711670E0,-1.326338196E1,-2.083853149E1,1.901654053E1
2.888183594E0,-1.154135132E1,-2.083853149E1,1.901654053E1
2.890686035E0,-9.962982178E0,-2.083853149E1,1.901654053E1
2.893157959E0,-8.460021973E0,-2.083853149E1,1.901654053E1
2.895660401E0,-6.848129272E0,-2.083853149E1,1.901654053E1
2.898132324E0,-5.589370728E0,-2.083853149E1,1.901654053E1
2.900604248E0,-4.491027832E0,-2.083853149E1,1.901654053E1
2.903106690E0,-3.514190674E0,-2.083853149E1,1.892735291E1
2.905578613E0,-2.305725098E0,-2.083853149E1,1.796607971E1
2.908050537E0,-1.121795654E0,-2.083853149E1,1.683183289E1
2.910552979E0,-4.568023682E-1,-2.083853149E1,1.556291199E1
2.913024903E0,3.602142334E-1,-2.083853149E1,1.410662842E1
2.915527344E0,1.491485596E0,-2.083853149E1,1.285147095E1
2.917999268E0,2.409652710E0,-2.083853149E1,1.173098755E1
2.920471192E0,2.954330444E0,-2.083853149E1,1.079006958E1
2.922973633E0,3.500213623E0,-2.083853149E1,9.778518677E0
2.925445557E0,4.174179077E0,-2.083853149E1,8.883682251E0
2.927917481E0,4.785308838E0,-2.083853149E1,8.017578125E0
2.930419922E0,5.253967285E0,-2.083853149E1,7.319076538E0
2.932891846E0,5.751968384E0,-2.083853149E1,6.634323120E0
2.935394287E0,6.158981323E0,-2.083853149E1,5.837066650E0
2.937866211E0,6.630630493E0,-2.083853149E1,5.031402588E0
2.940338135E0,6.947265625E0,-2.083853149E1,4.415496826E0
2.942840576E0,7.137603760E0,-2.083853149E1,3.785232544E0
2.945312500E0,7.264495850E0,-2.083853149E1,3.303390503E0
2.947784424E0,7.534439087E0,-2.083853149E1,2.439086914E0
2.950286865E0,7.813369751E0,-2.083853149E1,1.741775513E0
2.952758789E0,7.996520996E0,-2.083853149E1,1.156387329E0
2.955261231E0,8.061172485E0,-2.083853149E1,4.973907471E-1
2.957733155E0,8.090499878E0,-2.083853149E1,-2.993774414E-2
2.960205078E0,8.243728638E0,-2.083853149E1,-6.566162109E-1
2.962707520E0,8.485534668E0,-2.083853149E1,-1.188720703E0
2.965179444E0,8.760284424E0,-2.083853149E1,-1.634643555E0
2.967651367E0,9.112823486E0,-2.083853149E1,-2.187103271E0
2.970153809E0,9.467163086E0,-2.083853149E1,-2.730590820E0
2.972625733E0,9.862213135E0,-2.083853149E1,-3.098098755E0
2.975128174E0,1.033625793E1,-2.083853149E1,-3.426101685E0
2.977600098E0,1.070497131E1,-2.083853149E1,-3.548217773E0
2.980072022E0,1.114610291E1,-2.083853149E1,-3.602676392E0
2.982574463E0,1.155491638E1,-2.083853149E1,-3.465606689E0
2.985046387E0,1.193139648E1,-2.083853149E1,-3.297424316E0
2.987518311E0,1.222349548E1,-2.083853149E1,-3.160354614E0
2.990020752E0,1.244195557E1,-2.083853149E1,-3.111862183E0
2.992492676E0,1.261793518E1,-2.083853149E1,-3.010711670E0
2.994964600E0,1.281605530E1,-2.083853149E1,-2.822174072E0
2.997467041E0,1.304649353E1,-2.083853149E1,-2.669540405E0
2.999938965E0,1.318415833E1,-2.083853149E1,-2.415161133E0
3.002441406E0,1.326976013E1,-2.083853149E1,-2.182922363E0
3.004913330E0,1.380426025E1,-2.083853149E1,-1.725631714E0
3.007385254E0,1.370251465E1,-2.083853149E1,-1.574188232E0
3.009887696E0,1.380665588E1,-2.083853149E1,-1.233016968E0
3.012359619E0,1.373362732E1,-2.083853149E1,-1.003768921E0
3.014862061E0,1.357621765E1,-2.083853149E1,-8.637084961E-1
3.017333985E0,1.333918762E1,-2.074395752E1,-5.811920166E-1
3.019805908E0,1.297167969E1,-2.013284302E1,-4.046173096E-1
3.022308350E0,1.271730042E1,-1.939842224E1,-2.483978271E-1
3.024780274E0,1.236833191E1,-1.876275635E1,-1.322784424E-1
3.027252197E0,1.214088440E1,-1.811932373E1,-7.542419434E-2
3.029754639E0,1.185298157E1,-1.747528076E1,2.681427002E-1
3.032226563E0,1.163153076E1,-1.692820740E1,4.554901123E-1
3.034729004E0,1.140167236E1,-1.651400757E1,6.871337891E-1
3.037200928E0,1.110899353E1,-1.625962830E1,9.474945068E-1
3.039672852E0,1.089051819E1,-1.602978516E1,1.208465576E0
3.042175293E0,1.063732910E1,-1.581669617E1,1.483795166E0
3.044647217E0,1.043801880E1,-1.554075623E1,1.624465942E0
3.047119141E0,1.025605774E1,-1.531809998E1,1.820785522E0
3.049621582E0,1.005793762E1,-1.506192017E1,1.962646484E0
3.052093506E0,9.857421875E0,-1.481890869E1,2.093719482E0
3.054595947E0,9.547363281E0,-1.466328430E1,2.324768066E0
3.057067871E0,9.177459717E0,-1.447114563E1,2.486373901E0
3.059539795E0,8.859634399E0,-1.434425354E1,2.680908203E0
3.062042237E0,8.574127197E0,-1.434126282E1,2.721603394E0
3.064514160E0,8.321533203E0,-1.427961731E1,2.809585571E0
3.066986084E0,8.194046021E0,-1.419821167E1,2.838912964E0
3.069488526E0,8.113845825E0,-1.410064697E1,2.895187378E0
3.071960449E0,8.075531006E0,-1.395520020E1,2.912536621E0
3.074462891E0,7.866043091E0,-1.366072083E1,2.911346436E0
3.076934815E0,7.747528076E0,-1.345780945E1,2.910751343E0
3.079406738E0,7.642181396E0,-1.323574829E1,2.805999756E0
3.081909180E0,7.552398682E0,-1.305737305E1,2.801803589E0
3.084381104E0,7.447662354E0,-1.280239868E1,2.768890381E0
3.086853028E0,7.411743164E0,-1.272398376E1,2.624038696E0
3.089355469E0,7.456039429E0,-1.262342834E1,2.456451416E0
3.091827393E0,7.433288574E0,-1.246061707E1,2.370254517E0
3.094329834E0,7.329147339E0,-1.231996155E1,2.293045044E0
3.096801758E0,7.273483276E0,-1.213920593E1,2.230194092E0
3.099273682E0,7.151977539E0,-1.195005798E1,2.213439941E0
3.101776123E0,6.978393555E0,-1.181896973E1,2.224807739E0
3.104248047E0,6.888610840E0,-1.165916443E1,2.229598999E0
3.106719971E0,6.801818848E0,-1.157536316E1,2.214035034E0
3.109222412E0,6.701263428E0,-1.147959900E1,2.317581177E0
3.111694336E0,6.617462158E0,-1.147241211E1,2.399581909E0
3.114196778E0,6.541442871E0,-1.151132202E1,2.519897461E0
3.116668701E0,6.498947144E0,-1.155262756E1,2.674316406E0
3.119140625E0,6.399597168E0,-1.154962158E1,2.803604126E0
3.121643067E0,6.270309448E0,-1.158015442E1,2.952651978E0
3.124114990E0,6.141021729E0,-1.153706360E1,3.178894043E0
3.126586914E0,6.005142212E0,-1.155680847E1,3.357269287E0
3.129089356E0,5.940505981E0,-1.161367798E1,3.511688232E0
3.131561280E0,5.855514526E0,-1.168429565E1,3.759490967E0
3.134063721E0,5.748367310E0,-1.172380066E1,4.014480591E0
3.136535645E0,5.537673950E0,-1.180940247E1,4.259277344E0
3.139007569E0,5.355117798E0,-1.192431641E1,4.496902466E0
3.141510010E0,5.186325073E0,-1.205419922E1,4.741714478E0
3.143981934E0,5.053451538E0,-1.225831604E1,4.982330322E0
3.146484375E0,4.923568726E0,-1.237982178E1,5.215164185E0
3.148956299E0,4.854736328E0,-1.260726929E1,5.388153076E0
3.151428223E0,4.769149780E0,-1.272637939E1,5.482711792E0
3.153930664E0,4.729644775E0,-1.282453918E1,5.570098877E0
3.156402588E0,4.686538696E0,-1.287481689E1,5.614990234E0
3.158874512E0,4.660202026E0,-1.288439941E1,5.578491211E0
3.161376953E0,4.585983276E0,-1.292689514E1,5.582077026E0
3.163848877E0,4.532119751E0,-1.292568970E1,5.452789307E0
3.166320801E0,4.563247681E0,-1.293347168E1,5.382156372E0
3.168823242E0,4.489624023E0,-1.293586731E1,5.286987305E0
3.171295166E0,4.523132324E0,-1.293766785E1,5.079299927E0
3.173797608E0,4.577011108E0,-1.284667969E1,4.884170532E0
3.176269531E0,4.690734863E0,-1.280717468E1,4.708786011E0
3.178741455E0,4.908599854E0,-1.277186584E1,4.469970703E0
3.181243897E0,5.149215698E0,-1.269345093E1,4.262268066E0
3.183715821E0,5.361114502E0,-1.261026001E1,4.025848389E0
3.186218262E0,5.611907959E0,-1.247200012E1,3.783432007E0
3.188690186E0,5.795654297E0,-1.235766602E1,3.582321167E0
3.191162110E0,5.993774414E0,-1.223915100E1,3.423110962E0
3.193664551E0,6.223617554E0,-1.209191895E1,3.296813965E0
3.196136475E0,6.489379883E0,-1.206437683E1,3.156753540E0
3.198608399E0,6.741958618E0,-1.200093079E1,3.050811768E0
3.201110840E0,7.044235229E0,-1.184530640E1,2.891586304E0
3.203582764E0,7.321365356E0,-1.164718628E1,2.766494751E0
3.206085205E0,7.515289307E0,-1.136528015E1,2.673721313E0
3.208557129E0,7.746932983E0,-1.109233093E1,2.725189209E0
3.211029053E0,7.875015259E0,-1.096484375E1,2.854476929E0
3.213531494E0,8.042022705E0,-1.105882263E1,2.975387573E0
3.216003418E0,7.983963013E0,-1.086907959E1,3.148971558E0
3.218475342E0,8.021072388E0,-1.077630615E1,3.350082397E0
3.220977783E0,8.059371948E0,-1.075415039E1,3.570953369E0
3.223449707E0,8.106063843E0,-1.072003174E1,3.779235840E0
3.225952149E0,8.222183228E0,-1.077989197E1,3.949829102E0
3.228424072E0,8.190460205E0,-1.083436584E1,4.165313721E0
3.230895996E0,8.212600708E0,-1.087625122E1,4.323318481E0
3.233398438E0,8.203628540E0,-1.088703918E1,4.373001099E0
3.235870362E0,8.077926636E0,-1.091696167E1,4.487930298E0
3.238342285E0,7.986953735E0,-1.091636658E1,4.587280273E0
3.240844727E0,7.865447998E0,-1.092054749E1,4.683059692E0
3.243316651E0,7.799606323E0,-1.092474365E1,4.745300293E0
3.245819092E0,7.666732788E0,-1.094030762E1,4.820724487E0
3.248291016E0,7.604476929E0,-1.089242554E1,4.815933228E0
3.250762940E0,7.518890381E0,-1.088822937E1,4.857833862E0
3.253265381E0,7.494934082E0,-1.081880188E1,4.906311035E0
3.255737305E0,7.468002319E0,-1.084034729E1,4.920684814E0
3.258209229E0,7.410552979E0,-1.080741882E1,5.030212402E0
3.260711670E0,7.386596680E0,-1.075115967E1,5.037994385E0
3.263183594E0,7.386596680E0,-1.066137695E1,5.148727417E0
3.265686035E0,7.327346802E0,-1.060810852E1,5.306152344E0
3.268157959E0,7.277664185E0,-1.059074402E1,5.471343994E0
3.270629883E0,7.258514404E0,-1.061289978E1,5.529998779E0
3.273132324E0,7.143585205E0,-1.061888123E1,5.643127441E0
3.275604248E0,7.038848877E0,-1.057937622E1,5.845443726E0
3.278076172E0,6.970611572E0,-1.054107666E1,6.139328003E0
3.280578613E0,6.779067993E0,-1.058476257E1,6.354202271E0
3.283050537E0,6.630035400E0,-1.060630798E1,6.630142212E0
3.285552979E0,6.497161865E0,-1.068353271E1,6.948562622E0
3.288024903E0,6.307418823E0,-1.079306030E1,7.204147339E0
3.290496826E0,6.189498901E0,-1.089482117E1,7.491455078E0
3.292999268E0,6.043457031E0,-1.098280334E1,7.720092773E0
3.295471192E0,5.915969849E0,-1.110729980E1,7.897262573E0
3.297943115E0,5.871078491E0,-1.115518188E1,8.059478760E0
3.300445557E0,5.795059204E0,-1.115458679E1,8.180984497E0
3.302917481E0,5.710662842E0,-1.120066833E1,8.285125732E0
3.305419922E0,5.663970947E0,-1.114260864E1,8.305480957E0
3.307891846E0,5.680740356E0,-1.113423157E1,8.307281494E0
3.310363770E0,5.713653564E0,-1.112106323E1,8.342590332E0
3.312866211E0,5.762130737E0,-1.112046814E1,8.299499512E0
3.315338135E0,5.846527100E0,-1.109771729E1,8.246826172E0
3.317810059E0,5.936920166E0,-1.107078552E1,8.278549194E0
3.320312500E0,6.046447754E0,-1.108815002E1,8.303680420E0
3.322784424E0,6.133834839E0,-1.099118042E1,8.223480225E0
3.325286865E0,6.227813721E0,-1.094329834E1,8.087005615E0
3.327758789E0,6.394805908E0,-1.092474365E1,7.888290405E0
3.330230713E0,6.537261963E0,-1.077690125E1,7.764984131E0
3.332733155E0,6.664154053E0,-1.066018677E1,7.617752075E0
3.335205078E0,6.808410645E0,-1.053628540E1,7.538742065E0
3.337677002E0,6.861083984E0,-1.043392944E1,7.407058716E0
3.340179444E0,6.900573730E0,-1.038545227E1,7.338821411E0
3.342651367E0,7.000534058E0,-1.032618713E1,7.266998291E0
3.345153809E0,7.122650146E0,-1.024717712E1,7.192779541E0
3.347625733E0,7.157958984E0,-1.023042297E1,7.111373901E0
3.350097656E0,7.214218140E0,-1.015321350E1,7.037155151E0
3.352600098E0,7.299819946E0,-1.005564880E1,6.930618286E0
3.355072022E0,7.366256714E0,-9.917984009E0,6.788162231E0
3.357543946E0,7.472198486E0,-9.827590942E0,6.680419922E0
3.360046387E0,7.521881104E0,-9.744995117E0,6.681610107E0
3.362518311E0,7.603881836E0,-9.861114502E0,6.702560425E0
3.365020752E0,7.751724243E0,-9.938323975E0,6.661865234E0
3.367492676E0,7.542221069E0,-9.708480835E0,6.624145508E0
3.369964600E0,7.536239624E0,-9.498992920E0,6.603210449E0
3.372467041E0,7.656555176E0,-9.452301025E0,6.641510010E0
3.374938965E0,7.736160278E0,-9.379287720E0,6.628341675E0
3.377410889E0,7.796005249E0,-9.352951050E0,6.555313110E0
3.379913330E0,7.894180298E0,-9.443328857E0,6.552932739E0
3.382385254E0,7.924102783E0,-9.459487915E0,6.526596069E0
3.384887696E0,7.902557373E0,-9.402633667E0,6.510421753E0
3.387359619E0,7.883407593E0,-9.416992188E0,6.568481445E0
3.389862061E0,7.808578491E0,-9.385269165E0,6.684600830E0
3.392333985E0,7.706222534E0,-9.400833130E0,6.751647949E0
3.394805908E0,7.635604858E0,-9.399032593E0,6.794143677E0
3.397308350E0,7.572158813E0,-9.381072998E0,6.919235229E0
3.399780274E0,7.500335693E0,-9.391860962E0,7.061096191E0
3.402252197E0,7.430892944E0,-9.443923950E0,7.128128052E0
3.404754639E0,7.363861084E0,-9.396041870E0,7.261016846E0
3.407226563E0,7.257324219E0,-9.363128662E0,7.395690918E0
3.409698487E0,7.167541504E0,-9.417587280E0,7.551300049E0
3.412200928E0,7.083145142E0,-9.403228760E0,7.646484375E0
3.414672852E0,6.888610840E0,-9.384674072E0,7.715316772E0
3.417175293E0,6.795837402E0,-9.327209473E0,7.897262573E0
3.419647217E0,6.648590088E0,-9.329605103E0,8.002014160E0
3.422119141E0,6.517501831E0,-9.385864258E0,8.069046021E0
3.424621582E0,6.394210815E0,-9.354736328E0,8.145675659E0
3.427093506E0,6.261322021E0,-9.267349243E0,8.276748657E0
3.429595947E0,6.136825562E0,-9.296081543E0,8.362350464E0
3.432067871E0,5.982406616E0,-9.322418213E0,8.422790527E0
3.434539795E0,5.871078491E0,-9.275131226E0,8.456909180E0
3.437011719E0,5.808822632E0,-9.260772705E0,8.590988159E0
3.439514160E0,5.692703247E0,-9.236831665E0,8.695739746E0
3.441986084E0,5.609512329E0,-9.200317383E0,8.785522461E0
3.444488526E0,5.558624268E0,-9.250000000E0,8.794494629E0
3.446960449E0,5.540069580E0,-9.213485718E0,8.875900269E0
3.449432373E0,5.301254272E0,-8.992019653E0,8.896255493E0
3.451934815E0,5.143829346E0,-8.846572876E0,8.931564331E0
3.454406738E0,5.024124146E0,-8.749008179E0,8.921981812E0
3.456909180E0,4.865509033E0,-8.661621094E0,8.877090454E0
3.459381104E0,4.766754150E0,-8.652648926E0,8.874710083E0
3.461853028E0,4.580596924E0,-8.610748291E0,8.911209106E0
3.464355469E0,4.393249512E0,-8.612533569E0,8.872909546E0
3.466827393E0,4.167007446E0,-8.504806519E0,8.820831299E0
3.469329834E0,3.967086792E0,-8.471878052E0,8.816650391E0
3.471801758E0,3.794708252E0,-8.395263672E0,8.831008911E0
3.474273682E0,3.588195801E0,-8.315063477E0,8.790313721E0
3.476745606E0,3.388885498E0,-8.236053467E0,8.720870972E0
3.479248047E0,3.184173584E0,-8.146270752E0,8.623306274E0
3.481719971E0,2.980072021E0,-8.052902222E0,8.647857666E0
3.484222412E0,2.784347534E0,-7.961318970E0,8.604156494E0
3.486694336E0,2.593414307E0,-7.842803955E0,8.579620361E0
3.489166260E0,2.423416138E0,-7.742843628E0,8.576629639E0
3.491668701E0,2.240264893E0,-7.681198120E0,8.541305542E0
3.494140625E0,2.062500000E0,-7.621337891E0,8.611343384E0
3.496643067E0,1.891311646E0,-7.547119141E0,8.644851685E0
3.499114990E0,1.702163696E0,-7.454940796E0,8.638870239E0
3.501586914E0,1.524398804E0,-7.429809570E0,8.630493164E0
3.504089356E0,1.343032837E0,-7.456741333E0,8.586196899E0
3.506561280E0,1.229919434E0,-7.418426514E0,8.579025269E0
3.509033203E0,1.083862305E0,-7.365753174E0,8.601760864E0
3.511535645E0,9.390258789E-1,-7.307098389E0,8.564651489E0
3.514007569E0,8.528289795E-1,-7.166442871E0,8.614334106E0
3.516510010E0,7.163543701E-1,-7.012023926E0,8.633483887E0
3.518981934E0,5.457763672E-1,-6.956344604E0,8.665802002E0
3.521453858E0,4.098968506E-1,-6.834838867E0,8.693344116E0
3.523956299E0,3.302917480E-1,-6.661865234E0,8.769363403E0
3.526428223E0,1.267852783E-1,-6.645706177E0,8.746017456E0
3.528900147E0,1.365661621E-2,-6.515213013E0,8.885482788E0
3.531402588E0,-1.670989990E-1,-6.351211548E0,8.975860596E0
3.533874512E0,-3.484649658E-1,-6.211151123E0,9.129684448E0
3.536376953E0,-5.316162109E-1,-6.121368408E0,9.220657349E0
3.538848877E0,-7.141723633E-1,-6.036972046E0,9.379287720E0
3.541320801E0,-8.835601807E-1,-6.005249023E0,9.554656982E0
3.543823242E0,-1.064331055E0,-5.965744019E0,9.766540527E0
3.546295166E0,-1.187637329E0,-5.871780396E0,9.857528687E0
3.548767090E0,-1.337860107E0,-5.683837891E0,1.002870178E1
3.551269531E0,-1.530593872E0,-5.637741089E0,1.019270325E1
3.553741455E0,-1.653900146E0,-5.380966187E0,1.031541443E1
3.556243897E0,-1.846038818E0,-5.304946899E0,1.048838806E1
3.558715821E0,-2.045349121E0,-5.206192017E0,1.066915894E1
3.561187744E0,-2.238082886E0,-5.063140869E0,1.079963684E1
3.563690186E0,-2.427825928E0,-4.982925415E0,1.094987488E1
3.566162110E0,-2.607986450E0,-4.928466797E0,1.114619446E1
3.568634033E0,-2.795333862E0,-4.870407104E0,1.127369690E1
3.571136475E0,-2.900680542E0,-4.859634399E0,1.137603760E1
3.573608399E0,-2.945571899E0,-4.845855713E0,1.145625305E1
3.576110840E0,-3.085037231E0,-4.758468628E0,1.161067200E1
3.578582764E0,-3.118560791E0,-4.721359253E0,1.177049255E1
3.581054688E0,-3.108383179E0,-4.651931763E0,1.188540649E1
3.583557129E0,-3.156265259E0,-4.665695190E0,1.191653442E1
3.586029053E0,-3.134719849E0,-4.587890625E0,1.191893005E1
3.588500977E0,-3.129928589E0,-4.434661865E0,1.197518921E1
3.591003418E0,-3.213119507E0,-4.440643311E0,1.199853516E1
3.593475342E0,-3.169433594E0,-4.429275513E0,1.197039795E1
3.595977783E0,-3.127532959E0,-4.366424561E0,1.194586182E1
3.598449707E0,-3.032958984E0,-4.332901001E0,1.186865234E1
3.600921631E0,-2.889907837E0,-4.282028198E0,1.180281067E1
3.603424072E0,-2.774383545E0,-4.189849854E0,1.177886963E1
3.605895996E0,-2.644500732E0,-4.095886230E0,1.166694641E1
3.608367920E0,-2.554122925E0,-3.967193604E0,1.160948181E1
3.610870362E0,-2.448776245E0,-3.942047119E0,1.155261230E1
3.613342285E0,-2.321884155E0,-3.840896606E0,1.149516296E1
3.615844727E0,-2.332061768E0,-3.627212524E0,1.147720337E1
3.618316651E0,-2.320693970E0,-3.668518066E0,1.147241211E1
3.620788574E0,-2.300338745E0,-3.645172119E0,1.153645325E1
3.623291016E0,-2.336242676E0,-3.606857300E0,1.155621338E1
3.625762940E0,-2.300338745E0,-3.669708252E0,1.157716370E1
3.628234863E0,-2.335647583E0,-3.775054932E0,1.168669128E1
3.630737305E0,-2.327270508E0,-3.858856201E0,1.179084778E1
3.633209229E0,-2.303329468E0,-3.926483154E0,1.193508911E1
3.635711670E0,-2.342239380E0,-4.011489868E0,1.205718994E1
3.638183594E0,-2.369766235E0,-4.150344849E0,1.219247437E1
3.640655518E0,-2.375747681E0,-4.212005615E0,1.239178467E1
3.643157959E0,-2.439193726E0,-4.337097168E0,1.255818176E1
3.645629883E0,-2.435607910E0,-4.490921021E0,1.262582397E1
3.648101807E0,-2.399093628E0,-4.602844238E0,1.275988770E1
3.650604248E0,-2.369766235E0,-4.711181641E0,1.293766785E1
3.653076172E0,-2.330856323E0,-4.777023315E0,1.305677795E1
3.655578613E0,-2.133346558E0,-4.839874268E0,1.316690063E1
3.658050537E0,-1.996276855E0,-4.939834595E0,1.330757141E1
3.660522461E0,-1.844238281E0,-4.969757080E0,1.342967224E1
3.663024903E0,-1.749069214E0,-5.054153442E0,1.357511902E1
3.665496826E0,-1.671264648E0,-5.135559082E0,1.367088318E1
3.667968750E0,-1.605422974E0,-5.222351074E0,1.376426697E1
3.670471192E0,-1.615600586E0,-5.356430054E0,1.385224915E1
3.672943115E0,-1.653305054E0,-5.524612427E0,1.393244934E1
3.675445557E0,-1.692214966E0,-5.629364014E0,1.402941895E1
3.677917481E0,-1.770614624E0,-5.777801514E0,1.410902405E1
3.680389405E0,-1.865783691E0,-5.906494141E0,1.415870667E1
3.682891846E0,-1.922058105E0,-6.086654663E0,1.419700623E1
3.685363770E0,-2.005249023E0,-6.179428101E0,1.419161987E1
3.687835694E0,-2.138122559E0,-6.305725098E0,1.417187500E1
3.690338135E0,-2.285369873E0,-6.454772949E0,1.419102478E1
3.692810059E0,-2.420043945E0,-6.505645752E0,1.411979675E1
3.695312500E0,-2.651687622E0,-6.575073242E0,1.408029175E1
3.697784424E0,-2.918640137E0,-6.703765869E0,1.406652832E1
3.700256348E0,-3.198760986E0,-6.833053589E0,1.399110413E1
3.702758789E0,-3.561477661E0,-6.933013916E0,1.403779602E1
3.705230713E0,-3.882904053E0,-7.050323486E0,1.407191467E1
3.707702637E0,-4.307876587E0,-7.150878906E0,1.409825134E1
3.710205078E0,-4.698135376E0,-7.261611938E0,1.412219238E1
3.712677002E0,-5.045883179E0,-7.426208496E0,1.412577820E1
3.715179444E0,-5.329605103E0,-7.508209229E0,1.414733887E1
3.717651367E0,-5.682739258E0,-7.602783203E0,1.418862915E1
3.720123291E0,-6.011352539E0,-7.693161011E0,1.413955688E1
3.722625733E0,-6.379455566E0,-7.730270386E0,1.404916382E1
3.725097656E0,-6.685913086E0,-7.758407593E0,1.406413269E1
3.727569580E0,-6.951080322E0,-7.769775391E0,1.396716309E1
3.730072022E0,-7.273696899E0,-7.829635620E0,1.382650757E1
3.732543946E0,-7.546630859E0,-7.709335327E0,1.371337891E1
3.735046387E0,-7.489166260E0,-7.597991943E0,1.359248352E1
3.737518311E0,-7.602294922E0,-7.626724243E0,1.345420837E1
3.739990235E0,-7.891998291E0,-7.527969360E0,1.332492065E1
3.742492676E0,-8.124832153E0,-7.368759155E0,1.318725586E1
3.744964600E0,-8.306793213E0,-7.318481445E0,1.298255920E1
3.747436524E0,-8.424102783E0,-7.222702026E0,1.278742981E1
3.749938965E0,-8.527648926E0,-7.065887451E0,1.265454102E1
3.752410889E0,-8.774261475E0,-7.074264526E0,1.254022217E1
3.754913330E0,-8.988540649E0,-6.982681274E0,1.243009949E1
3.757385254E0,-9.305175781E0,-6.905471802E0,1.229721069E1
3.759857178E0,-9.582305908E0,-6.856994629E0,1.225112915E1
3.762359619E0,-9.892944336E0,-6.813293457E0,1.216374207E1
3.764831543E0,-1.015272522E1,-6.776779175E0,1.214338684E1
3.767333985E0,-1.046995544E1,-6.807312012E0,1.207514954E1
3.769805908E0,-1.070877075E1,-6.753448486E0,1.198835754E1
3.772277832E0,-1.103437805E1,-6.743865967E0,1.193209839E1
3.774780274E0,-1.135400391E1,-6.742065430E0,1.189857483E1
3.777252197E0,-1.169398499E1,-6.679229736E0,1.184530640E1
3.779724121E0,-1.197709656E1,-6.608001709E0,1.180760193E1
3.782226563E0,-1.228115845E1,-6.549942017E0,1.182615662E1
3.784698487E0,-1.258283997E1,-6.446380615E0,1.184291077E1
3.787200928E0,-1.284979248E1,-6.351821899E0,1.189259338E1
3.789672852E0,-1.306825256E1,-6.347030640E0,1.193629456E1
3.792144776E0,-1.329211426E1,-6.334457397E0,1.208113098E1
3.794647217E0,-1.353752136E1,-6.387725830E0,1.216253662E1
3.797119141E0,-1.375958252E1,-6.434417725E0,1.226130676E1
3.799591065E0,-1.395352173E1,-6.419448853E0,1.238699341E1
3.802093506E0,-1.409297180E1,-6.412261963E0,1.251867676E1
3.804565430E0,-1.417198181E1,-6.311706543E0,1.257015991E1
3.807067871E0,-1.423542786E1,-6.295547485E0,1.256895447E1
3.809539795E0,-1.428990173E1,-6.263229370E0,1.260366821E1
3.812011719E0,-1.432580566E1,-6.210556030E0,1.256297302E1
3.814514160E0,-1.430426025E1,-6.189605713E0,1.257135010E1
3.816986084E0,-1.432162476E1,-6.135742188E0,1.259410095E1
3.819458008E0,-1.434497070E1,-6.098037720E0,1.254142761E1
3.821960449E0,-1.444911194E1,-6.012435913E0,1.250131226E1
3.824432373E0,-1.455445862E1,-5.913085938E0,1.249473572E1
3.826934815E0,-1.471008301E1,-5.838851929E0,1.240974426E1
3.829406738E0,-1.500517273E1,-5.779602051E0,1.237921143E1
3.831878662E0,-1.521286011E1,-5.663482666E0,1.230020142E1
3.834381104E0,-1.547024536E1,-5.604232788E0,1.218827820E1
3.836853028E0,-1.575096130E1,-5.495285034E0,1.207934570E1
3.839324951E0,-1.599876404E1,-5.428253174E0,1.192372131E1
3.841827393E0,-1.625672913E1,-5.328887939E0,1.181118774E1
3.844299317E0,-1.653565979E1,-5.224746704E0,1.169387817E1
3.846801758E0,-1.680441284E1,-5.102035522E0,1.163282776E1
3.849273682E0,-1.707196045E1,-5.009262085E0,1.150114441E1
3.851745606E0,-1.731976318E1,-4.871597290E0,1.137304688E1
3.854248047E0,-1.766812134E1,-4.705200195E0,1.130720520E1
3.856719971E0,-1.790454102E1,-4.546585083E0,1.114320374E1
3.859191895E0,-1.812182617E1,-4.434661865E0,1.091217041E1
3.861694336E0,-1.825709534E1,-4.306564331E0,1.084931946E1
3.864166260E0,-1.845880127E1,-4.187454224E0,1.068771362E1
3.866668701E0,-1.860305786E1,-4.013885498E0,1.051712036E1
3.869140625E0,-1.871498108E1,-3.873809814E0,1.040339661E1
3.871612549E0,-1.885086060E1,-3.700241089E0,1.026931763E1
3.874114990E0,-1.892327881E1,-3.536834717E0,1.009753418E1
3.876586914E0,-1.895799255E1,-3.362655640E0,9.977828979E0
3.879058838E0,-1.890951538E1,-3.183090210E0,9.797073364E0
3.881561280E0,-1.900228882E1,-3.112457275E0,9.648025513E0
3.884033203E0,-1.901605225E1,-2.962829590E0,9.527114868E0
3.886535645E0,-1.887001038E1,-2.803009033E0,9.416992188E0
3.889007569E0,-1.892507935E1,-2.667739868E0,9.311050415E0
3.891479492E0,-1.904597473E1,-2.456451416E0,9.246994019E0
3.893981934E0,-1.913098145E1,-2.281066895E0,9.123703003E0
3.896453858E0,-1.923632812E1,-2.184707642E0,9.017150879E0
3.898925781E0,-1.928720093E1,-2.104507446E0,8.948928833E0
3.901428223E0,-1.935543823E1,-1.993179321E0,8.893264771E0
3.903900147E0,-1.950686646E1,-1.877059937E0,8.739425659E0
3.906402588E0,-1.951943970E1,-1.835754395E0,8.633483887E0
3.908874512E0,-1.949908447E1,-1.801040649E0,8.608947754E0
3.911346436E0,-1.942605591E1,-1.485000610E0,8.500610352E0
3.913848877E0,-1.925009155E1,-1.190521240E0,8.380905151E0
3.916320801E0,-1.926086426E1,-1.062423706E0,8.278549194E0
3.918792725E0,-1.908129883E1,-8.044433594E-1,8.243225098E0
3.921295166E0,-1.876765442E1,-5.345001221E-1,8.087005615E0
3.923767090E0,-1.853482056E1,-4.112091064E-1,8.035537720E0
3.926269531E0,-1.835525513E1,-2.998657227E-1,8.122924805E0
3.928741455E0,-1.809667969E1,-2.172698975E-1,8.018173218E0
3.931213379E0,-1.779859924E1,-1.310882568E-1,7.958923340E0
3.933715821E0,-1.750770569E1,-6.942749023E-2,7.957122803E0
3.936187744E0,-1.720663452E1,1.205444336E-3,7.956527710E0
3.938659668E0,-1.682176208E1,8.320617676E-2,7.914031982E0
3.941162110E0,-1.646981812E1,1.065368652E-1,7.892486572E0
3.943634033E0,-1.603048706E1,1.454467773E-1,7.854171753E0
3.946136475E0,-1.564381409E1,2.358245850E-1,7.877517700E0
3.948608399E0,-1.528468323E1,2.974853516E-1,7.902664185E0
3.951080322E0,-1.495668030E1,3.417663574E-1,7.843399048E0
3.953582764E0,-1.474061584E1,3.693084717E-1,7.855377197E0
3.956054688E0,-1.470170593E1,3.681030273E-1,7.884094238E0
3.958526612E0,-1.478370667E1,3.860626221E-1,7.937377930E0
3.961029053E0,-1.503390503E1,3.848724365E-1,7.994232178E0
3.963500977E0,-1.539781189E1,4.094085693E-1,7.979873657E0
3.966003418E0,-1.584971619E1,4.004364014E-1,8.098388672E0
3.968475342E0,-1.629084778E1,3.980407715E-1,8.158233643E0
3.970947266E0,-1.669607544E1,3.902587891E-1,8.203125000E0
3.973449707E0,-1.705340576E1,4.058227539E-1,8.261184692E0
3.975921631E0,-1.730000305E1,4.010314941E-1,8.300689697E0
3.978393555E0,-1.758552551E1,4.243774414E-1,8.261184692E0
3.980895996E0,-1.782733154E1,4.596862793E-1,8.275558472E0
3.983367920E0,-1.801287842E1,4.944000244E-1,8.196548462E0
3.985870362E0,-1.819065857E1,5.273284912E-1,8.118728638E0
3.988342285E0,-1.835644531E1,6.302795410E-1,8.109161377E0
3.990814209E0,-1.850250244E1,5.913696289E-1,8.044509888E0
3.993316651E0,-1.857971191E1,6.099243164E-1,8.003814697E0
3.995788574E0,-1.863957214E1,9.756317139E-1,7.958328247E0
3.998260498E0,-1.879280090E1,9.756317139E-1,7.962509155E0
4.000762940E0,-1.882929993E1,9.570770264E-1,7.919418335E0
4.003234863E0,-1.872994995E1,1.067810059E0,7.812271118E0
4.005737305E0,-1.863238525E1,1.079788208E0,7.706924438E0
4.008209229E0,-1.847856140E1,1.152206421E0,7.705139160E0
4.010681153E0,-1.830317688E1,1.209075928E0,7.615951538E0
4.013183594E0,-1.803681946E1,1.217453003E0,7.548309326E0
4.015655518E0,-1.772917175E1,1.343154907E0,7.541137695E0
4.018127442E0,-1.734609985E1,1.433532715E0,7.502822876E0
4.020629883E0,-1.690437317E1,1.477218628E0,7.423217773E0
4.023101807E0,-1.661227417E1,1.572387695E0,7.373535156E0
4.025604248E0,-1.626512146E1,1.593948364E0,7.251434326E0
4.028076172E0,-1.604185486E1,1.647811890E0,7.119155884E0
4.030548096E0,-1.589401245E1,1.779495239E0,7.029968262E0
4.033050537E0,-1.578567505E1,1.919555664E0,6.976699829E0
4.035522461E0,-1.562765503E1,1.977020264E0,6.834243774E0
4.037994385E0,-1.565759277E1,2.105102539E0,6.675033569E0
4.040496826E0,-1.565937805E1,2.123062134E0,6.603805542E0
4.042968750E0,-1.583116150E1,2.144607544E0,6.464935303E0
4.045471192E0,-1.599995422E1,2.336746216E0,6.389526367E0
4.047943115E0,-1.630282593E1,2.402587891E0,6.281188965E0
4.050415039E0,-1.655122375E1,2.531875610E0,6.190200806E0
4.052917481E0,-1.679483032E1,2.624649048E0,6.067504883E0
4.055389405E0,-1.684391785E1,2.597717285E0,5.925048828E0
4.057861328E0,-1.698995972E1,2.817382812E0,5.863388062E0
4.060363770E0,-1.710488892E1,2.967620850E0,5.753265381E0
4.062835694E0,-1.713182068E1,3.087921143E0,5.677841187E0
4.065338135E0,-1.712463379E1,3.135208130E0,5.583267212E0
4.067810059E0,-1.710069275E1,3.189682007E0,5.455184937E0
4.070281983E0,-1.703605652E1,3.295623779E0,5.378570557E0
4.072784424E0,-1.701510620E1,3.412338257E0,5.320510864E0
4.075256348E0,-1.688999939E1,3.406951904E0,5.257064819E0
4.077728272E0,-1.676969910E1,3.466812134E0,5.244491577E0
4.080230713E0,-1.663861084E1,3.500320435E0,5.234924316E0
4.082702637E0,-1.648179626E1,3.526062012E0,5.112213135E0
4.085205078E0,-1.627169800E1,3.578735352E0,5.083480835E0
4.087677002E0,-1.600595093E1,3.567962646E0,5.077499390E0
4.090148926E0,-1.573898315E1,3.538040161E0,5.105636597E0
4.092651367E0,-1.540679932E1,3.563171387E0,5.106826782E0
4.095123291E0,-1.503569031E1,3.516479492E0,5.051162720E0
4.097595215E0,-1.474360657E1,3.605667114E0,5.012847900E0
4.100097656E0,-1.442756653E1,3.647567749E0,5.006866455E0
4.102569580E0,-1.414324951E1,3.693054199E0,4.977539062E0
4.105072022E0,-1.387211609E1,3.753509521E0,4.895538330E0
4.107543946E0,-1.366142273E1,3.760101318E0,4.799179077E0
4.110015869E0,-1.346031189E1,3.783432007E0,4.733337402E0
4.112518311E0,-1.326518250E1,3.862442017E0,4.635162354E0
4.114990235E0,-1.307005310E1,3.879806519E0,4.493316650E0
4.117492676E0,-1.289826965E1,3.909729004E0,4.423278809E0
4.119964600E0,-1.277557373E1,3.936065674E0,4.298187256E0
4.122436524E0,-1.271450806E1,3.837310791E0,4.175476074E0
4.124938965E0,-1.265406799E1,4.048599243E0,4.032424927E0
4.127410889E0,-1.256727600E1,4.058776855E0,3.885787964E0
4.129882813E0,-1.249484253E1,4.052185059E0,3.785827637E0
4.132385254E0,-1.246252441E1,4.023452759E0,3.638580322E0
4.134857178E0,-1.252117920E1,4.158721924E0,3.544006348E0
4.137359619E0,-1.242781067E1,4.174896240E0,3.426696777E0
4.139831543E0,-1.244816589E1,4.160522461E0,3.261489868E0
4.142303467E0,-1.242601013E1,4.182678223E0,3.154953003E0
4.144805908E0,-1.239967346E1,4.195236206E0,3.001724243E0
4.147277832E0,-1.233204651E1,4.191650391E0,2.874237061E0
4.149749756E0,-1.229733276E1,4.192840576E0,2.716812134E0
4.152252197E0,-1.224345398E1,4.198226929E0,2.660552979E0
4.154724121E0,-1.220993042E1,4.201828003E0,2.522888184E0
4.157226563E0,-1.214230347E1,4.200027466E0,2.390014648E0
4.159698487E0,-1.206388855E1,4.200622559E0,2.288253784E0
4.162170410E0,-1.203157043E1,4.193450928E0,2.189498901E0
4.164672852E0,-1.188491821E1,4.192245483E0,2.124252319E0
4.167144776E0,-1.180590820E1,4.191055298E0,2.079360962E0
4.169616699E0,-1.175325012E1,4.187454224E0,1.994964600E0
4.172119141E0,-1.162455750E1,4.186264038E0,1.895004272E0
4.174591065E0,-1.160899353E1,4.196441650E0,1.844131470E0
4.177093506E0,-1.151562500E1,4.244918823E0,1.804031372E0
4.179565430E0,-1.144139099E1,4.202423096E0,1.705261230E0
4.182037354E0,-1.137734985E1,4.210800171E0,1.574188232E0
4.184539795E0,-1.135700989E1,4.216781616E0,1.516723633E0
4.187011719E0,-1.142463684E1,4.243728638E0,1.444900513E0
4.189483643E0,-1.154196167E1,4.250900269E0,1.291671753E0
4.191986084E0,-1.165927124E1,4.025253296E0,1.272506714E0
4.194458008E0,-1.182986450E1,4.188659668E0,1.207870483E0
4.196929932E0,-1.200283813E1,4.159927368E0,1.066009521E0
4.199432373E0,-1.213810730E1,4.174285889E0,9.893951416E-1
4.201904297E0,-1.228594971E1,4.232345581E0,9.038085938E-1
4.204406738E0,-1.244456482E1,4.151550293E0,9.175720215E-1
4.206878662E0,-1.251939392E1,3.773864746E0,1.308425903E0
4.209350586E0,-1.254393005E1,3.923492432E0,1.246170044E0
4.211853028E0,-1.272349548E1,4.137786865E0,3.124389648E-1
4.214324951E0,-1.275042725E1,4.195236206E0,6.990966797E-1
4.216827393E0,-1.286056519E1,4.209609985E0,3.393707275E-1
4.219299317E0,-1.292401123E1,4.144363403E0,2.735290527E-1
4.221771240E0,-1.304371643E1,4.244918823E0,3.890533447E-1
4.224273682E0,-1.308322144E1,4.258682251E0,1.921234131E-1
4.226745606E0,-1.313470459E1,4.192840576E0,1.849517822E-1
4.229217530E0,-1.323884583E1,4.094085693E0,1.400604248E-1
4.231719971E0,-1.333161926E1,3.962997437E0,2.364196777E-1
4.234191895E0,-1.341542053E1,3.834320068E0,1.843414307E-1
4.236694336E0,-1.359617615E1,3.712203979E0,2.585754395E-1
4.239166260E0,-1.373744202E1,3.625427246E0,3.136291504E-1
4.241638184E0,-1.392956543E1,3.505111694E0,3.764801025E-1
4.244140625E0,-1.408879089E1,3.374633789E0,5.033721924E-1
4.246612549E0,-1.424620056E1,3.305801392E0,5.566406250E-1
4.249084473E0,-1.434317017E1,3.178909302E0,7.026977539E-1
4.251586914E0,-1.446467590E1,3.105880737E0,8.259887695E-1
4.254058838E0,-1.462089539E1,3.052612305E0,8.738861084E-1
4.256561280E0,-1.472683716E1,2.927505493E0,9.073944092E-1
4.259033203E0,-1.480285645E1,2.801818848E0,9.026031494E-1
4.261505127E0,-1.488725281E1,2.722808838E0,9.199676514E-1
4.264007569E0,-1.499978638E1,2.615661621E0,9.014129639E-1
4.266479492E0,-1.511230469E1,2.594711304E0,8.852539062E-1
4.268951416E0,-1.524519348E1,2.518707275E0,8.906402588E-1
4.271453858E0,-1.535771179E1,2.468429565E0,9.283447266E-1
4.273925781E0,-1.554325867E1,2.419937134E0,9.768371582E-1
4.276428223E0,-1.572941589E1,2.331954956E0,1.012145996E0
4.278900147E0,-1.584553528E1,2.254135132E0,9.840087891E-1
4.281372071E0,-1.601492310E1,2.129043579E0,1.058837891E0
4.283874512E0,-1.619149780E1,1.932723999E0,1.096542358E0
4.286346436E0,-1.640158081E1,1.739395142E0,1.105514526E0
4.288818360E0,-1.653686523E1,1.548446655E0,1.215057373E0
4.291320801E0,-1.671163940E1,1.388641357E0,1.320999146E0
4.293792725E0,-1.694447327E1,1.230621338E0,1.358703613E0
4.296295166E0,-1.722998047E1,1.062423706E0,1.404190063E0
4.298767090E0,-1.755439758E1,9.301452637E-1,1.447891235E0
4.301239014E0,-1.774832153E1,8.236083984E-1,1.488586426E0
4.303741455E0,-1.800810242E1,7.068939209E-1,1.485595703E0
4.306213379E0,-1.842648315E1,5.584411621E-1,1.609497070E0
4.308685303E0,-1.877783203E1,3.836669922E-1,1.693298340E0
4.311187744E0,-1.909326172E1,2.358245850E-1,1.677139282E0
4.313659668E0,-1.939852905E1,1.035461426E-1,1.801635742E0
4.316162110E0,-1.977920532E1,-6.703186035E-2,1.865676880E0
4.318634033E0,-1.991387939E1,-2.346343994E-1,1.950073242E0
4.321105957E0,-1.991387939E1,-3.824768066E-1,1.982986450E0
4.323608399E0,-1.991088867E1,-6.093292236E-1,2.054214478E0
4.326080322E0,-1.991387939E1,-8.104400635E-1,2.130828857E0
4.328552246E0,-1.991387939E1,-1.052246094E0,2.312194824E0
4.331054688E0,-1.991387939E1,-1.243194580E0,2.499542236E0
4.333526612E0,-1.991387939E1,-1.428146362E0,2.622848511E0
4.336029053E0,-1.991387939E1,-1.611892700E0,2.749740601E0
4.338500977E0,-1.991387939E1,-1.847717285E0,2.834732056E0
4.340972901E0,-1.991387939E1,-2.141006470E0,3.060989380E0
4.343475342E0,-1.991387939E1,-2.209243774E0,3.013092041E0
4.345947266E0,-1.991387939E1,-2.105697632E0,2.880218506E0
4.348419190E0,-1.991387939E1,-2.360076904E0,2.932296753E0
4.350921631E0,-1.991387939E1,-2.987960815E0,3.087921143E0
4.353393555E0,-1.991387939E1,-3.470397949E0,3.235153198E0
4.355895996E0,-1.991387939E1,-3.606262207E0,3.276458740E0
4.358367920E0,-1.991387939E1,-3.597885132E0,3.346496582E0
4.360839844E0,-1.991387939E1,-3.673309326E0,3.386596680E0
4.363342285E0,-1.991387939E1,-3.849868774E0,3.417724609E0
4.365814209E0,-1.991387939E1,-3.966598511E0,3.422500610E0
4.368286133E0,-1.991387939E1,-4.040817261E0,3.345886230E0
4.370788574E0,-1.991387939E1,-4.192245483E0,3.418914795E0
4.373260498E0,-1.991387939E1,-4.404724121E0,3.417114258E0
4.375762940E0,-1.991387939E1,-4.733337402E0,3.463211060E0
4.378234863E0,-1.991387939E1,-5.052963257E0,3.631393433E0
4.380706787E0,-1.991387939E1,-5.292388916E0,3.756500244E0
4.383209229E0,-1.991387939E1,-5.598846436E0,3.983947754E0
4.385681153E0,-1.991387939E1,-5.883148193E0,4.030639648E0
4.388153076E0,-1.991387939E1,-6.133941650E0,4.124008179E0
4.390655518E0,-1.991387939E1,-6.427230835E0,4.192840576E0
4.393127442E0,-1.991387939E1,-6.713333130E0,4.298782349E0
4.395629883E0,-1.991387939E1,-6.971908569E0,4.396347046E0
4.398101807E0,-1.991387939E1,-7.238861084E0,4.463378906E0
4.400573731E0,-1.991387939E1,-7.529159546E0,4.534606934E0
4.403076172E0,-1.991387939E1,-7.797317505E0,4.590881348E0
4.405548096E0,-1.991387939E1,-7.958328247E0,4.656112671E0
4.408020020E0,-1.991387939E1,-8.116348267E0,4.711776733E0
4.410522461E0,-1.991387939E1,-8.286331177E0,4.730941772E0
4.412994385E0,-1.991387939E1,-8.499420166E0,4.741119385E0
4.415496826E0,-1.991387939E1,-8.878295898E0,4.790786743E0
4.417968750E0,-1.991387939E1,-9.184158325E0,4.844070435E0
4.420440674E0,-1.991387939E1,-9.439743042E0,4.949401855E0
4.422943115E0,-1.991387939E1,-9.758758545E0,5.087081909E0
4.425415039E0,-1.991387939E1,-1.003948975E1,5.240905762E0
4.427917481E0,-1.991387939E1,-1.034713745E1,5.382766724E0
4.430389405E0,-1.991387939E1,-1.071046448E1,5.644927979E0
4.432861328E0,-1.991387939E1,-1.120066833E1,5.833465576E0
4.435363770E0,-1.991387939E1,-1.168789673E1,5.967544556E0
4.437835694E0,-1.991387939E1,-1.222360229E1,6.215347290E0
4.440307617E0,-1.991387939E1,-1.274433899E1,6.480499268E0
4.442810059E0,-1.991387939E1,-1.324891663E1,6.701965332E0
4.445281983E0,-1.991387939E1,-1.367507935E1,6.946777344E0
4.447784424E0,-1.991387939E1,-1.414015198E1,7.234680176E0
4.450256348E0,-1.991387939E1,-1.467526245E1,7.457931519E0
4.452728272E0,-1.991387939E1,-1.512417603E1,7.717697144E0
4.455230713E0,-1.991387939E1,-1.560481262E1,8.057083130E0
4.457702637E0,-1.991387939E1,-1.609323120E1,8.316848755E0
4.460174561E0,-1.991387939E1,-1.663371277E1,8.482055664E0
4.462677002E0,-1.991387939E1,-1.707543945E1,8.628692627E0
4.465148926E0,-1.991387939E1,-1.751837158E1,8.781921387E0
4.467651367E0,-1.991387939E1,-1.784817505E1,8.873504639E0
4.470123291E0,-1.991387939E1,-1.819712830E1,9.012374878E0
4.472595215E0,-1.991387939E1,-1.861970520E1,9.096771240E0
4.475097656E0,-1.991387939E1,-1.900996399E1,9.183547974E0
4.477569580E0,-1.991387939E1,-1.946246338E1,9.383468628E0
4.480041504E0,-1.991387939E1,-1.997781372E1,9.579788208E0
4.482543946E0,-1.991387939E1,-2.052728271E1,9.758163452E0
4.485015869E0,-1.991387939E1,-2.083853149E1,9.977828979E0
4.487518311E0,-1.991387939E1,-2.083853149E1,1.017295837E1
4.489990235E0,-1.991387939E1,-2.083255005E1,1.034593201E1
4.492462158E0,-1.991387939E1,-2.083853149E1,1.054106140E1
4.494964600E0,-1.991387939E1,-2.083853149E1,1.072482300E1
4.497436524E0,-1.991387939E1,-2.083853149E1,1.087385559E1
4.499908447E0,-1.991387939E1,-2.083853149E1,1.110729980E1
4.502410889E0,-1.991387939E1,-2.083853149E1,1.147898865E1
4.504882813E0,-1.991387939E1,-2.083853149E1,1.181118774E1
4.507385254E0,-1.991387939E1,-2.083853149E1,1.220263672E1
4.509857178E0,-1.991387939E1,-2.083853149E1,1.264317322E1
4.512329102E0,-1.991387939E1,-2.083853149E1,1.314176941E1
4.514831543E0,-1.991387939E1,-2.083853149E1,1.370739746E1
4.517303467E0,-1.991387939E1,-2.083853149E1,1.431433105E1
4.519775391E0,-1.991387939E1,-2.083853149E1,1.495837402E1
4.522277832E0,-1.991387939E1,-2.083853149E1,1.559523010E1
4.524749756E0,-1.991387939E1,-2.083853149E1,1.631707764E1
4.527252197E0,-1.991387939E1,-2.083853149E1,1.698985291E1
4.529724121E0,-1.991387939E1,-2.083853149E1,1.776795959E1
4.532226563E0,-1.991387939E1,-2.083853149E1,1.854966736E1
4.534698487E0,-1.991387939E1,-2.083853149E1,1.901654053E1
4.537170410E0,-1.991387939E1,-2.083853149E1,1.901654053E1
4.539672852E0,-1.991387939E1,-2.083853149E1,1.900756836E1
4.542144776E0,-1.991387939E1,-2.083853149E1,1.901654053E1
4.544616699E0,-1.991387939E1,-2.083853149E1,1.901654053E1
4.547119141E0,-1.991387939E1,-2.083853149E1,1.901654053E1
4.549591065E0,-1.991387939E1,-2.083853149E1,1.901654053E1
4.552062988E0,-1.991387939E1,-2.083853149E1,1.901654053E1
4.554565430E0,-1.991387939E1,-2.083853149E1,1.901654053E1
4.557037354E0,-1.991387939E1,-2.083853149E1,1.901654053E1
4.559539795E0,-1.991387939E1,-2.083853149E1,1.901654053E1
4.562011719E0,-1.991387939E1,-2.083853149E1,1.901654053E1
4.564483643E0,-1.991387939E1,-2.083853149E1,1.901654053E1
4.566986084E0,-1.991387939E1,-2.083853149E1,1.901654053E1
4.569458008E0,-1.991387939E1,-2.083853149E1,1.901654053E1
4.571929932E0,-1.991387939E1,-2.083853149E1,1.901654053E1
4.574432373E0,-1.991387939E1,-2.083853149E1,1.901654053E1
4.576904297E0,-1.991387939E1,-2.083853149E1,1.901654053E1
4.579406738E0,-1.991387939E1,-2.083853149E1,1.901654053E1
4.581878662E0,-1.991387939E1,-2.083853149E1,1.901654053E1
4.584350586E0,-1.991387939E1,-2.083853149E1,1.901654053E1
4.586853028E0,-1.991387939E1,-2.083853149E1,1.901654053E1
4.589324951E0,-1.991387939E1,-2.083853149E1,1.901654053E1
4.591796875E0,-1.991387939E1,-2.083853149E1,1.901654053E1
4.594299317E0,-1.991387939E1,-2.083853149E1,1.901654053E1
4.596771240E0,-1.991387939E1,-2.083853149E1,1.901654053E1
4.599243164E0,-1.991387939E1,-2.083853149E1,1.901654053E1
4.601745606E0,-1.991387939E1,-2.083853149E1,1.901654053E1
4.604217530E0,-1.991387939E1,-2.083853149E1,1.901654053E1
4.606719971E0,-1.991387939E1,-2.083853149E1,1.901654053E1
4.609191895E0,-1.991387939E1,-2.083853149E1,1.901654053E1
4.611663819E0,-1.991387939E1,-2.083853149E1,1.901654053E1
4.614166260E0,-1.991387939E1,-2.083853149E1,1.901654053E1
4.616638184E0,-1.991387939E1,-2.083853149E1,1.901654053E1
4.619110108E0,-1.990609741E1,-2.083853149E1,1.901654053E1
4.621612549E0,-1.934585571E1,-2.083853149E1,1.901654053E1
4.624084473E0,-1.808410645E1,-2.083853149E1,1.901654053E1
4.626586914E0,-1.690376282E1,-2.083853149E1,1.901654053E1
4.629058838E0,-1.585032654E1,-2.083853149E1,1.890879822E1
4.631530762E0,-1.475917053E1,-2.083853149E1,1.829469299E1
4.634033203E0,-1.361653137E1,-2.083853149E1,1.761712646E1
4.636505127E0,-1.257026672E1,-2.083853149E1,1.707244873E1
4.638977051E0,-1.157368469E1,-2.083853149E1,1.648107910E1
4.641479492E0,-1.054237366E1,-2.083853149E1,1.592802429E1
4.643951416E0,-9.497299194E0,-2.083853149E1,1.534562683E1
4.646453858E0,-8.470794678E0,-2.083853149E1,1.487336731E1
4.648925781E0,-7.561599731E0,-2.083853149E1,1.438076782E1
4.651397705E0,-6.687118530E0,-2.083853149E1,1.393963623E1
4.653900147E0,-5.795867920E0,-2.083853149E1,1.356553650E1
4.656372071E0,-5.022537231E0,-2.083853149E1,1.319204712E1
4.658874512E0,-4.288726807E0,-2.083853149E1,1.276467896E1
4.661346436E0,-3.583633423E0,-2.083853149E1,1.238639832E1
4.663818360E0,-2.895889282E0,-2.083853149E1,1.199435425E1
4.666320801E0,-2.247070312E0,-2.083853149E1,1.163102722E1
4.668792725E0,-1.643127441E0,-2.083853149E1,1.129225159E1
4.671264649E0,-1.046966553E0,-2.083853149E1,1.092951965E1
4.673767090E0,-4.460296631E-1,-2.083853149E1,1.056800842E1
4.676239014E0,7.830810547E-2,-2.083853149E1,1.022682190E1
4.678710938E0,6.445312500E-1,-2.083853149E1,9.822204590E0
4.681213379E0,1.145523071E0,-2.083853149E1,9.465469360E0
4.683685303E0,1.581268311E0,-2.083853149E1,9.071624756E0
4.686187744E0,1.933807373E0,-2.083853149E1,8.790908813E0
4.688659668E0,2.327056885E0,-2.083853149E1,8.434768677E0
4.691131592E0,2.632919312E0,-2.083853149E1,8.127105713E0
4.693634033E0,2.935775757E0,-2.083853149E1,7.808685303E0
4.696105957E0,3.239852905E0,-2.083853149E1,7.467514038E0
4.698608399E0,3.451736450E0,-2.083853149E1,7.126937866E0
4.701080322E0,3.703720093E0,-2.083853149E1,6.818084717E0
4.703552246E0,3.955108643E0,-2.083853149E1,6.485885620E0
4.706054688E0,4.155029297E0,-2.083853149E1,6.217132568E0
4.708526612E0,4.293899536E0,-2.083853149E1,5.968139648E0
4.710998535E0,4.381286621E0,-2.083853149E1,5.712554932E0
4.713500977E0,4.404022217E0,-2.083853149E1,5.507858276E0
4.715972901E0,4.442932129E0,-2.083853149E1,5.316314697E0
4.718475342E0,4.465072632E0,-2.083853149E1,5.085876465E0
4.720947266E0,4.499191284E0,-2.083853149E1,4.864410400E0
4.723419190E0,4.569824219E0,-2.083853149E1,4.753677368E0
4.725921631E0,4.575210571E0,-2.083853149E1,4.620803833E0
4.728393555E0,4.496795654E0,-2.083853149E1,4.542999268E0
4.730865479E0,4.544692993E0,-2.083853149E1,4.503494263E0
4.733367920E0,4.505187988E0,-2.083853149E1,4.398742676E0
4.735839844E0,4.498596191E0,-2.083853149E1,4.246704102E0
4.738342285E0,4.577606201E0,-2.083853149E1,4.048583984E0
4.740814209E0,4.628479004E0,-2.083853149E1,3.839691162E0
4.743286133E0,4.722457886E0,-2.083853149E1,3.620620728E0
4.745788574E0,4.814041138E0,-2.083853149E1,3.318954468E0
4.748260498E0,4.915191650E0,-2.083853149E1,3.040634155E0
4.750732422E0,5.016342163E0,-2.083853149E1,2.854476929E0
4.753234863E0,5.148620605E0,-2.083853149E1,2.636016846E0
4.755706787E0,5.260559082E0,-2.083853149E1,2.307998657E0
4.758209229E0,5.380264282E0,-2.083853149E1,2.060806274E0
4.760681153E0,5.536483765E0,-2.083853149E1,1.787872314E0
4.763153076E0,5.658584595E0,-2.083853149E1,1.584960938E0
4.765655518E0,5.856704712E0,-2.083853149E1,1.386840820E0
4.768127442E0,6.033874512E0,-2.083853149E1,1.108505249E0
4.770599365E0,6.223022461E0,-2.081878662E1,8.678894043E-1
4.773101807E0,6.376846313E0,-2.060629272E1,7.326202393E-1
4.775573731E0,6.530670166E0,-2.018431091E1,4.548950195E-1
4.778076172E0,6.727005005E0,-1.968811035E1,4.070129395E-1
4.780548096E0,6.972412109E0,-1.930624390E1,2.424011230E-1
4.783020020E0,7.134613037E0,-1.898960876E1,1.250915527E-1
4.785522461E0,7.320159912E0,-1.864305115E1,8.978271484E-2
4.787994385E0,7.497329712E0,-1.834437561E1,-9.217834473E-2
4.790466309E0,7.717010498E0,-1.803851318E1,-1.795654297E-1
4.792968750E0,7.910934448E0,-1.770631409E1,-1.550292969E-1
4.795440674E0,8.100082397E0,-1.737173462E1,-1.424560547E-1
4.797943115E0,8.280838013E0,-1.707304382E1,-1.640014648E-1
4.800415039E0,8.488540649E0,-1.673606873E1,-9.756469727E-2
4.802886963E0,8.675277710E0,-1.636018372E1,2.990722656E-3
4.805389405E0,8.878784180E0,-1.607048035E1,1.005554199E-1
4.807861328E0,9.050567627E0,-1.579394531E1,2.029113770E-1
4.810363770E0,9.266647339E0,-1.555513000E1,2.573699951E-1
4.812835694E0,9.427062988E0,-1.531510925E1,3.375701904E-1
4.815307617E0,9.525817871E0,-1.520198059E1,3.489532471E-1
4.817810059E0,9.682037354E0,-1.503977966E1,3.962402344E-1
4.820281983E0,9.795776367E0,-1.496316528E1,4.501037598E-1
4.822753906E0,9.929840088E0,-1.483447266E1,5.297088623E-1
4.825256348E0,1.002500916E1,-1.471595764E1,5.961456299E-1
4.827728272E0,1.018542480E1,-1.457231140E1,6.787567139E-1
4.830200196E0,1.026203918E1,-1.444480896E1,7.284240723E-1
4.832702637E0,1.034883118E1,-1.430654907E1,7.823028564E-1
4.835174561E0,1.039910889E1,-1.417726135E1,8.493347168E-1
4.837677002E0,1.040390015E1,-1.398931885E1,9.798278809E-1
4.840148926E0,1.038893127E1,-1.390612793E1,1.118682861E0
4.842620850E0,1.038713074E1,-1.387500000E1,1.253952026E0
4.845123291E0,1.027162170E1,-1.390612793E1,1.397613525E0
4.847595215E0,1.015429688E1,-1.397674561E1,1.496963501E0
4.850097656E0,1.008845520E1,-1.406234741E1,1.659179688E0
4.852569580E0,1.002082825E1,-1.414852905E1,1.759140015E0
4.855041504E0,9.966949463E0,-1.411920166E1,1.835754395E0
4.857543946E0,9.843658447E0,-1.409226990E1,1.887222290E0
4.860015869E0,9.704193115E0,-1.396717834E1,1.963241577E0
4.862487793E0,9.569519043E0,-1.391510010E1,1.996154785E0
4.864990235E0,9.441421509E0,-1.385044861E1,2.105697632E0
4.867462158E0,9.304351807E0,-1.386242676E1,2.167343140E0
4.869964600E0,9.176864624E0,-1.387559509E1,2.218826294E0
4.872436524E0,9.027832031E0,-1.383549500E1,2.254135132E0
4.874908447E0,8.815948486E0,-1.386361694E1,2.275680542E0
4.877410889E0,8.586700439E0,-1.390373230E1,2.351699829E0
4.879882813E0,8.429870605E0,-1.390791321E1,2.451065063E0
4.882354737E0,8.140777588E0,-1.394921875E1,2.491760254E0
4.884857178E0,7.901962280E0,-1.393365479E1,2.601303101E0
4.887329102E0,7.699050903E0,-1.393724060E1,2.614456177E0
4.889801026E0,7.482971191E0,-1.390791321E1,2.595901489E0
4.892303467E0,7.253723145E0,-1.390252686E1,2.698257446E0
4.894775391E0,7.091522217E0,-1.380915833E1,2.788635254E0
4.897277832E0,6.891601562E0,-1.375468445E1,2.864654541E0
4.899749756E0,6.689895630E0,-1.375828552E1,2.863464355E0
4.902221680E0,6.668945312E0,-1.388517761E1,2.893981934E0
4.904724121E0,6.202072144E0,-1.368046570E1,2.846099854E0
4.907196045E0,5.899200439E0,-1.342787170E1,2.885604858E0
4.909667969E0,5.802246094E0,-1.321778870E1,2.879028320E0
4.912170410E0,5.706466675E0,-1.312800598E1,2.804809570E0
4.914642334E0,5.463455200E0,-1.311064148E1,2.811386108E0
4.917144776E0,5.330581665E0,-1.297238159E1,2.680908203E0
4.919616699E0,5.238998413E0,-1.298854065E1,2.598907471E0
4.922088623E0,5.086380005E0,-1.276528931E1,2.543838501E0
4.924591065E0,4.872695923E0,-1.252586365E1,2.417541504E0
4.927062988E0,4.753585815E0,-1.230799866E1,2.408569336E0
4.929534912E0,4.665588379E0,-1.215176392E1,2.384613037E0
4.932037354E0,4.532714844E0,-1.200033569E1,2.369659424E0
4.934509278E0,4.397445679E0,-1.186326599E1,2.385223389E0
4.937011719E0,4.289703369E0,-1.171362305E1,2.369659424E0
4.939483643E0,4.214279175E0,-1.162205505E1,2.390014648E0
4.941955567E0,4.148452759E0,-1.150773621E1,2.431304932E0
4.944458008E0,4.089782715E0,-1.138502502E1,2.500732422E0
4.946929932E0,4.027542114E0,-1.130900574E1,2.564178467E0
4.949401856E0,3.955108643E0,-1.122161865E1,2.677307129E0
4.951904297E0,3.899444580E0,-1.117074585E1,2.854476929E0
4.954376221E0,3.840194702E0,-1.108395386E1,2.953842163E0
4.956878662E0,3.797698975E0,-1.102769470E1,3.067565918E0
4.959350586E0,3.738433838E0,-1.094389343E1,3.193862915E0
4.961822510E0,3.709106445E0,-1.088284302E1,3.327941895E0
4.964324951E0,3.679183960E0,-1.079425049E1,3.414123535E0
4.966796875E0,3.674392700E0,-1.075415039E1,3.463806152E0
4.969268799E0,3.621719360E0,-1.064282227E1,3.540420532E0
4.971771240E0,3.686370850E0,-1.059074402E1,3.636184692E0
4.974243164E0,3.704315186E0,-1.051892090E1,3.712203979E0
4.976745606E0,3.716888428E0,-1.047523499E1,3.760086060E0
4.979217530E0,3.727661133E0,-1.036808777E1,3.755294800E0
4.981689453E0,3.795898438E0,-1.025436401E1,3.748123169E0
4.984191895E0,3.817443848E0,-1.014363098E1,3.803787231E0
4.986663819E0,3.899444580E0,-1.006881714E1,3.834915161E0
4.989166260E0,4.007781982E0,-9.967056274E0,3.789413452E0
4.991638184E0,4.006591797E0,-9.812637329E0,3.750518799E0
4.994110108E0,4.053878784E0,-9.652221680E0,3.761886597E0
4.996612549E0,4.089782715E0,-9.530715942E0,3.732559204E0
4.999084473E0,4.093383789E0,-9.443328857E0,3.774459839E0
5.001556397E0,4.208892822E0,-9.348159790E0,3.804382324E0
5.004058838E0,4.222061157E0,-9.276336670E0,3.870819092E0
5.006530762E0,4.210693359E0,-9.175170898E0,3.872024536E0
5.009033203E0,4.281921387E0,-9.098556519E0,3.960006714E0
5.011505127E0,4.319625854E0,-9.021942139E0,3.963592529E0
5.013977051E0,4.385467529E0,-8.942947388E0,4.032424927E0
5.016479492E0,4.420181274E0,-8.932769775E0,4.203613281E0
5.018951416E0,4.497406006E0,-8.872909546E0,4.249099731E0
5.021423340E0,4.560241699E0,-8.751403809E0,4.387969971E0
5.023925781E0,4.620697021E0,-8.687957764E0,4.472366333E0
5.026397705E0,4.658416748E0,-8.679580688E0,4.514862061E0
5.028900147E0,4.689529419E0,-8.626312256E0,4.633377075E0
5.031372071E0,4.773925781E0,-8.570648193E0,4.708190918E0
5.033843994E0,4.840972900E0,-8.531738281E0,4.730346680E0
5.036346436E0,4.954696655E0,-8.486251831E0,4.802169800E0
5.038818360E0,5.006164551E0,-8.467086792E0,4.914093018E0
5.041290283E0,5.049270630E0,-8.404846191E0,4.948806763E0
5.043792725E0,5.113906860E0,-8.353363037E0,4.990112305E0
5.046264649E0,5.175552368E0,-8.280349731E0,5.117004395E0
5.048767090E0,5.202499390E0,-8.229461670E0,5.266647339E0
5.051239014E0,5.177352905E0,-8.201934814E0,5.327087402E0
5.053710938E0,5.172561646E0,-8.178588867E0,5.384552002E0
5.056213379E0,5.121688843E0,-8.154052734E0,5.417480469E0
5.058685303E0,5.142044067E0,-8.106765747E0,5.430038452E0
5.061187744E0,5.161193848E0,-8.063674927E0,5.495285034E0
5.063659668E0,5.145034790E0,-7.915222168E0,5.567108154E0
5.066131592E0,5.096542358E0,-7.849990845E0,5.565917969E0
5.068634033E0,5.051055908E0,-7.759613037E0,5.574295044E0
5.071105957E0,5.051055908E0,-7.658447266E0,5.624572754E0
5.073577881E0,5.034896851E0,-7.582427979E0,5.689224243E0
5.076080322E0,4.995986938E0,-7.521377563E0,5.728118896E0
5.078552246E0,4.961273193E0,-7.502822876E0,5.750274658E0
5.081024170E0,4.960083008E0,-7.438186646E0,5.719741821E0
5.083526612E0,4.964263916E0,-7.360977173E0,5.716156006E0
5.085998535E0,4.984619141E0,-7.277175903E0,5.655700684E0
5.088500977E0,5.034896851E0,-7.214920044E0,5.601226807E0
5.090972901E0,5.058242798E0,-7.047927856E0,5.568908691E0
5.093444824E0,5.133666992E0,-6.965927124E0,5.483917236E0
5.095947266E0,5.182144165E0,-6.882125854E0,5.461166382E0
5.098419190E0,5.239608765E0,-6.690597534E0,5.431243896E0
5.100891113E0,5.285690308E0,-6.534973145E0,5.330093384E0
5.103393555E0,5.283889771E0,-6.409881592E0,5.325302124E0
5.105865479E0,5.383255005E0,-6.262039185E0,5.287582397E0
5.108367920E0,5.429336548E0,-6.185424805E0,5.266036987E0
5.110839844E0,5.422760010E0,-6.027999878E0,5.252273560E0
5.113311768E0,5.388641357E0,-5.901702881E0,5.277420044E0
5.115814209E0,5.393432617E0,-5.787979126E0,5.279815674E0
5.118286133E0,5.358123779E0,-5.683227539E0,5.324096680E0
5.120758057E0,5.376678467E0,-5.546768188E0,5.343856812E0
5.123260498E0,5.397018433E0,-5.556335449E0,5.410888672E0
5.125732422E0,5.334777832E0,-5.617401123E0,5.415084839E0
5.128234863E0,5.410781860E0,-5.544372559E0,5.446807861E0
5.130706787E0,5.395828247E0,-5.546768188E0,5.465957642E0
5.133178711E0,5.352127075E0,-5.549758911E0,5.524017334E0
5.135681153E0,5.386840820E0,-5.556945801E0,5.516235352E0
5.138153076E0,5.380264282E0,-5.577285767E0,5.480316162E0
5.140625000E0,5.408996582E0,-5.490509033E0,5.510253906E0
5.143127442E0,5.303054810E0,-5.458175659E0,5.427658081E0
5.145599365E0,5.247390747E0,-5.437835693E0,5.367797852E0
5.148101807E0,5.237213135E0,-5.421661377E0,5.313323975E0
