"Time (s)","Linear Acceleration x (m/s^2)","Linear Acceleration y (m/s^2)","Linear Acceleration z (m/s^2)","Absolute acceleration (m/s^2)"
0.000000000E0,-1.126818657E-1,-2.522873878E-2,1.006841660E-1,1.532024588E-1
4.974365000E-3,-1.532393694E-1,-1.243996620E-2,1.419115067E-1,2.092269887E-1
9.948730000E-3,-1.686837673E-1,1.684284210E-2,1.506347656E-1,2.267790275E-1
1.489257800E-2,-1.706149578E-1,2.270507812E-2,1.273756027E-1,2.141250302E-1
1.986694300E-2,-1.983510256E-1,2.698326111E-2,1.131486893E-1,2.299431487E-1
2.484130800E-2,-1.788269281E-1,3.609418869E-3,6.014633179E-2,1.887052711E-1
2.981567300E-2,-1.364297867E-1,3.051829338E-2,3.793048859E-2,1.448557037E-1
3.475952100E-2,-1.377574205E-1,6.827235222E-2,8.175468445E-2,1.741322756E-1
3.973388600E-2,-1.176613569E-1,9.166169167E-2,1.127185822E-1,1.869533081E-1
4.470825200E-2,-8.116400242E-2,8.485579491E-2,1.493101120E-1,1.899516011E-1
4.968261700E-2,-6.332957745E-2,7.641220093E-2,1.764631271E-1,2.024566499E-1
5.465698200E-2,-3.066408634E-2,7.130742073E-2,2.089614868E-1,2.229123985E-1
5.960083000E-2,-2.510428429E-3,1.018764973E-1,2.219629288E-1,2.442389500E-1
6.454467700E-2,1.125355959E-1,1.145005226E-1,2.678451538E-1,3.122749693E-1
6.948852500E-2,1.650291681E-1,7.893919945E-2,3.535547256E-1,3.980790971E-1
7.446289000E-2,2.307943106E-1,4.740905762E-2,3.884067535E-1,4.542834344E-1
7.943725600E-2,1.995000839E-1,4.287362099E-2,3.869829178E-1,4.374862392E-1
8.441162100E-2,1.977863312E-1,4.227757454E-2,3.680820465E-1,4.199895464E-1
8.935546800E-2,1.663348675E-1,2.607297897E-2,3.620605469E-1,3.992930352E-1
9.432983400E-2,1.421748400E-1,3.499197960E-2,3.366899490E-1,3.671488057E-1
9.930419900E-2,1.276149750E-1,3.652930260E-2,2.908582687E-1,3.197162872E-1
1.042785640E-1,9.503209591E-2,-3.414392471E-3,2.228202820E-1,2.422635660E-1
1.092529290E-1,7.282757759E-2,-1.094341278E-3,1.693620682E-1,1.843598757E-1
1.141967770E-1,5.461835861E-2,9.686231613E-3,1.406869888E-1,1.512276992E-1
1.191711420E-1,3.660559654E-3,1.966691017E-2,1.206760406E-1,1.223229081E-1
1.241455070E-1,1.415073872E-2,1.610755920E-2,1.233625412E-1,1.252118742E-1
1.291198730E-1,-9.114980698E-3,-1.838922501E-2,5.596637726E-2,5.961108834E-2
1.340637200E-1,2.426922321E-2,-1.353287697E-2,9.284019470E-3,2.929721782E-2
1.390380860E-1,6.004738808E-2,-9.938955307E-3,-3.594875336E-2,7.068793755E-2
1.440124510E-1,1.185290813E-1,-2.514481544E-2,-5.603885651E-2,1.334981584E-1
1.489562980E-1,1.118334532E-1,-4.626631737E-2,-3.786277771E-2,1.268104227E-1
1.539306640E-1,1.107068062E-1,8.577585220E-3,-2.374362946E-2,1.135488082E-1
1.589050290E-1,1.149705648E-1,7.282924652E-2,-4.207515717E-2,1.424522684E-1
1.638793940E-1,8.020305634E-2,4.953455925E-2,-6.748199463E-2,1.159311106E-1
1.688537590E-1,4.821515083E-2,1.618695259E-2,-9.743499756E-2,1.099104042E-1
1.737976070E-1,2.281010151E-2,1.811504364E-2,-1.033515930E-1,1.073778716E-1
1.787719720E-1,-9.460687637E-3,4.211139679E-2,-6.422328949E-2,7.737897171E-2
1.837463380E-1,-3.054034710E-2,5.381202698E-2,-4.008483887E-2,7.372408938E-2
1.886901850E-1,-6.483328342E-2,2.035593987E-2,-4.358291626E-3,6.809341843E-2
1.936645500E-1,-3.474807739E-2,-5.844831467E-3,7.703781128E-3,3.606853450E-2
1.986389160E-1,-1.933693886E-2,-3.834033012E-2,8.358955383E-3,4.374665991E-2
2.036132810E-1,5.813670158E-2,1.945257187E-3,3.768253326E-2,6.930824922E-2
2.085571290E-1,9.172332287E-2,-1.282453537E-3,6.114768982E-2,1.102445129E-1
2.135314940E-1,8.526933193E-2,-1.738071442E-4,3.201484680E-2,9.108149973E-2
2.185058590E-1,4.493379593E-2,2.754306793E-2,8.845520020E-2,1.029659606E-1
2.234802240E-1,-7.716417313E-3,-2.202343941E-2,2.059478760E-1,2.072657777E-1
2.284240720E-1,-1.077055931E-2,-3.532981873E-2,2.226657867E-1,2.257083375E-1
2.333984370E-1,1.253128052E-3,-2.741265297E-2,2.169723511E-1,2.187007659E-1
2.383728020E-1,1.802515984E-2,-4.971599579E-2,2.121238708E-1,2.186163837E-1
2.433471680E-1,1.827037334E-2,-2.705264091E-2,1.705169678E-1,1.736136176E-1
2.482910150E-1,-3.390610218E-2,-3.322601318E-2,7.937622070E-2,9.248878921E-2
2.532653810E-1,-3.189647198E-2,-3.653979301E-2,-4.081726074E-3,4.867444798E-2
2.582397460E-1,3.762960434E-3,-4.821014404E-2,-1.135673523E-1,1.234338745E-1
2.632141110E-1,-1.058280468E-2,-3.807497025E-2,-1.470260620E-1,1.522444154E-1
2.681579590E-1,-5.572187901E-2,-2.402877808E-2,-1.706047058E-1,1.810753313E-1
2.731323240E-1,-7.054722309E-2,-1.544141769E-2,-1.521425247E-1,1.684122795E-1
2.781066890E-1,-9.313666821E-2,-9.454488754E-3,-1.982002258E-1,2.191966146E-1
2.830810540E-1,-9.269940853E-2,9.371995926E-3,-1.970806122E-1,2.179949136E-1
2.880249020E-1,-8.891713619E-2,1.447868347E-2,-2.108335495E-1,2.292742353E-1
2.929992670E-1,-1.389868259E-1,3.678679466E-2,-1.397037506E-1,2.004688105E-1
2.979736320E-1,-1.480363607E-1,4.419088364E-2,4.740428925E-2,1.616006341E-1
3.029479980E-1,-1.731176376E-1,1.553392410E-2,1.278934479E-1,2.157956285E-1
3.079223630E-1,-1.410372257E-1,6.948018074E-2,1.484260559E-1,2.162158381E-1
3.128662110E-1,-7.463109493E-2,6.219458580E-2,1.795310974E-1,2.041307957E-1
3.178405760E-1,-3.128969669E-2,5.887603760E-2,1.980724335E-1,2.089931143E-1
3.228149410E-1,-1.352214813E-2,4.711985588E-2,1.387920380E-1,1.471949697E-1
3.277587890E-1,-1.168251038E-5,5.674958229E-2,1.543426514E-1,1.644450342E-1
3.327331540E-1,3.315341473E-2,9.403347969E-2,1.256704330E-1,1.604197680E-1
3.377075190E-1,5.363321304E-2,7.293796539E-2,8.230400085E-2,1.223536550E-1
3.426818840E-1,1.464498043E-2,9.056520462E-2,2.489089966E-3,9.177541778E-2
3.476257320E-1,-1.049876213E-2,6.569147110E-2,-4.255390167E-2,7.897105754E-2
3.526000970E-1,-3.320121765E-2,1.070346832E-1,-1.035890579E-1,1.526087717E-1
3.575744630E-1,-8.739542961E-2,1.136732101E-2,-1.829538345E-1,2.030745742E-1
3.625488280E-1,-1.281425953E-1,-5.998873711E-2,-2.443780899E-1,2.823824076E-1
3.674926750E-1,-1.294648647E-1,3.023624420E-2,-2.184314728E-1,2.557101679E-1
3.724670410E-1,-1.620548964E-1,1.259324551E-1,-2.387104034E-1,3.148069716E-1
3.774414060E-1,-1.884639263E-1,1.525757313E-1,-3.318710327E-1,4.110187193E-1
3.824157710E-1,-1.818779707E-1,1.186501980E-1,-3.445501328E-1,4.072741824E-1
3.873901360E-1,-1.123870611E-1,8.243966103E-2,-2.913751602E-1,3.229963362E-1
3.923339840E-1,-1.008092165E-1,4.664254189E-2,-1.848545074E-1,2.156599494E-1
3.973083490E-1,-9.923326969E-2,2.589678764E-2,-6.044769287E-2,1.190454073E-1
4.022827140E-1,-1.219475269E-1,2.979087830E-2,3.765106201E-3,1.255900943E-1
4.072570800E-1,-1.652513742E-1,3.779268265E-2,5.952358246E-2,1.796645775E-1
4.122009270E-1,-2.348815203E-1,6.433606148E-2,1.675119400E-1,2.955819809E-1
4.171752930E-1,-2.986383438E-1,5.072784424E-2,1.721811295E-1,3.484315082E-1
4.221496580E-1,-3.327964544E-1,5.383062363E-2,1.563081741E-1,3.715958307E-1
4.271240230E-1,-3.026841879E-1,1.936173439E-2,1.870965958E-1,3.563674094E-1
4.320678710E-1,-2.446563244E-1,-2.556443214E-2,2.036294937E-1,3.193356040E-1
4.370422360E-1,-2.305641174E-1,1.823065281E-1,6.328868866E-2,3.006674917E-1
4.420166010E-1,-8.834886551E-2,1.433751583E-1,-1.561193466E-1,2.296414781E-1
4.469604490E-1,-4.028081894E-3,2.820897102E-2,-2.365808487E-1,2.382907247E-1
4.519348140E-1,-8.696675301E-3,-1.935553551E-2,-3.052358627E-1,3.059725491E-1
4.569091790E-1,-8.549058437E-2,-2.079629898E-2,-3.610353470E-1,3.716014637E-1
4.618835450E-1,-2.000361681E-1,2.139091492E-2,-3.690643311E-1,4.203338200E-1
4.668273920E-1,-2.642748356E-1,-4.206061363E-2,-3.446702957E-1,4.363575331E-1
4.718017570E-1,-2.665388584E-1,-8.795332909E-2,-3.651781082E-1,4.605798539E-1
4.767761230E-1,-2.855969667E-1,-4.957413673E-2,-3.565979004E-1,4.595490017E-1
4.817504880E-1,-4.942595959E-1,-1.044859886E-1,-2.563219070E-1,5.664898851E-1
4.866943360E-1,-5.796402693E-1,-1.190805435E-1,-3.500642776E-1,6.875376470E-1
4.916687010E-1,-5.650796890E-1,-1.650524139E-1,-4.386405945E-1,7.341409438E-1
4.966430660E-1,-6.241863966E-1,-3.200728893E-1,-3.905334473E-1,8.028522190E-1
5.016174310E-1,-7.112759352E-1,-5.571985245E-1,-2.951669693E-1,9.505299529E-1
5.065612790E-1,-9.346706867E-1,-3.005542755E-1,-6.483469009E-1,1.176561035E0
5.115356440E-1,-1.012909532E0,-5.846047401E-2,-7.728490829E-1,1.275421127E0
5.165100090E-1,-1.052411437E0,-2.316386700E-1,-7.284479141E-1,1.300716214E0
5.214538570E-1,-1.092826247E0,-4.834668636E-1,-4.598331451E-1,1.280412409E0
5.264282220E-1,-1.105903029E0,-4.633152485E-1,-2.958021164E-1,1.234982357E0
5.314025880E-1,-1.118742824E0,-2.836167812E-1,-3.586044312E-1,1.208561592E0
5.363769530E-1,-9.766380787E-1,-1.838750839E-1,-5.137338638E-1,1.118728951E0
5.413513180E-1,-7.374017239E-1,-1.764347553E-1,-6.242990494E-1,9.821607955E-1
5.462951660E-1,-8.084928989E-1,-1.268610954E-1,-3.827133179E-1,9.034511547E-1
5.512695310E-1,-9.480350018E-1,4.685759544E-2,-1.534433365E-1,9.615148758E-1
5.562438960E-1,-1.087435007E0,1.843616962E-1,-3.889226913E-1,1.169514852E0
5.612182610E-1,-1.099984884E0,4.170436859E-1,-6.837167740E-1,1.360647202E0
5.661621090E-1,-9.740562439E-1,4.831509590E-1,-9.085569382E-1,1.416931941E0
5.711364740E-1,-8.678314686E-1,3.761162758E-1,-9.605245590E-1,1.348036475E0
5.761108390E-1,-8.578948975E-1,2.698056698E-1,-8.696908951E-1,1.251055957E0
5.810546870E-1,-9.674911499E-1,2.683973312E-1,-9.831829071E-1,1.405249046E0
5.860290520E-1,-1.168418884E0,3.689255714E-1,-1.106454849E0,1.650924317E0
5.910034180E-1,-1.370470047E0,3.472273350E-1,-1.059900284E0,1.766958852E0
5.959777830E-1,-1.497453928E0,3.983952999E-1,-9.174299240E-1,1.800767821E0
6.009216310E-1,-1.658782244E0,5.284819603E-1,-6.726760864E-1,1.866372104E0
6.058959960E-1,-1.825187206E0,7.406425476E-1,-5.927457809E-1,2.056989859E0
6.108703610E-1,-2.031146049E0,9.621694088E-1,-7.322149277E-1,2.363781493E0
6.158447260E-1,-2.217522383E0,8.302681446E-1,-6.523189545E-1,2.456068144E0
6.207885740E-1,-2.133311272E0,4.039638042E-1,-9.057035446E-1,2.352552369E0
6.257629390E-1,-1.871886730E0,-1.895952225E-1,-1.497389793E0,2.404596114E0
6.307373040E-1,-2.222050190E0,-5.442814827E-1,-2.089856148E0,3.098588081E0
6.357116700E-1,-2.495087385E0,-6.831049919E-1,-2.617267609E0,3.679970547E0
6.406555170E-1,-2.740686178E0,-5.885641575E-1,-3.088352203E0,4.170813809E0
6.456298820E-1,-2.870080709E0,-4.788138866E-1,-3.366784096E0,4.449928220E0
6.506042480E-1,-2.870254040E0,-5.270984173E-1,-3.667944908E0,4.687217815E0
6.555786130E-1,-2.755906105E0,-7.859251499E-1,-3.869124413E0,4.814854154E0
6.605224610E-1,-2.690904617E0,-9.011096954E-1,-4.021238327E0,4.921719621E0
6.654968260E-1,-2.572987318E0,-1.049794197E0,-4.260613441E0,5.086763066E0
6.704711910E-1,-2.528401613E0,-1.075414181E0,-4.584706306E0,5.344984780E0
6.754455560E-1,-2.557149172E0,-9.778544903E-1,-5.021024704E0,5.718907271E0
6.803894040E-1,-2.606669426E0,-9.139487743E-1,-5.287954330E0,5.965944088E0
6.853637690E-1,-2.742607117E0,-1.017392874E0,-5.317805290E0,6.069269739E0
6.903381340E-1,-2.947934389E0,-1.272358179E0,-5.436727524E0,6.314049308E0
6.953125000E-1,-3.583581209E0,-2.234530926E0,-4.981728554E0,6.530911278E0
7.002563470E-1,-3.686363459E0,-2.179939747E0,-5.251803398E0,6.776640154E0
7.052307130E-1,-3.942546368E0,-2.245324612E0,-5.357698441E0,7.020689927E0
7.102050780E-1,-4.192569733E0,-2.590781450E0,-5.062551498E0,7.065353293E0
7.151794430E-1,-4.427878380E0,-2.695623636E0,-4.918642998E0,7.146015860E0
7.201232910E-1,-4.785824776E0,-2.829889774E0,-4.905696869E0,7.414732408E0
7.250976560E-1,-5.148833275E0,-3.002986670E0,-5.038364410E0,7.804711972E0
7.300720210E-1,-5.535409927E0,-3.031660318E0,-5.786098480E0,8.562164620E0
7.350463860E-1,-5.209525585E0,-3.346519232E0,-5.658415794E0,8.387849372E0
7.399902340E-1,-5.430850029E0,-3.637223959E0,-5.176665306E0,8.337949020E0
7.449645990E-1,-5.737257957E0,-3.626368046E0,-5.004342556E0,8.432681572E0
7.499389640E-1,-5.768633842E0,-3.855337381E0,-4.939690590E0,8.517118401E0
7.549133300E-1,-5.560470581E0,-4.088335037E0,-4.903874874E0,8.466481279E0
7.598571770E-1,-5.002344131E0,-4.311910629E0,-5.019231319E0,8.295101152E0
7.648315430E-1,-4.823982716E0,-4.278515816E0,-4.931176662E0,8.117450961E0
7.698059080E-1,-4.546562195E0,-4.265513897E0,-5.085948944E0,8.045664252E0
7.747802730E-1,-4.315276146E0,-4.423639297E0,-5.563753128E0,8.315379830E0
7.797241210E-1,-4.367184162E0,-4.698038578E0,-5.640446663E0,8.541574945E0
7.846984860E-1,-4.379871845E0,-5.024225235E0,-5.618601799E0,8.717499800E0
7.896728510E-1,-4.323722363E0,-5.359751225E0,-5.617573738E0,8.886992909E0
7.946472160E-1,-4.424468994E0,-5.526381016E0,-5.648852348E0,9.056839728E0
7.995910640E-1,-4.516965866E0,-5.764199734E0,-5.596257210E0,9.216673693E0
8.045654290E-1,-4.561818600E0,-6.114583969E0,-5.350123405E0,9.317840228E0
8.095397950E-1,-4.503210068E0,-6.311038971E0,-4.957103729E0,9.202227512E0
8.145141600E-1,-4.331732273E0,-6.384246826E0,-4.678661346E0,9.022881137E0
8.194885250E-1,-4.191934586E0,-6.515511036E0,-4.544868946E0,8.982206486E0
8.244323730E-1,-4.165633678E0,-6.589120865E0,-4.483643532E0,8.992890360E0
8.294067380E-1,-4.161787987E0,-6.693344593E0,-4.506796360E0,9.079237552E0
8.343811030E-1,-4.502109528E0,-6.639397144E0,-4.560783863E0,9.227748051E0
8.393249510E-1,-5.094594002E0,-6.712220192E0,-4.649521351E0,9.624283700E0
8.442993160E-1,-5.644918442E0,-6.957706451E0,-4.772092819E0,1.015123900E1
8.492736810E-1,-6.046894073E0,-7.455066204E0,-4.808653831E0,1.073620472E1
8.542480470E-1,-6.349614143E0,-7.993382454E0,-4.934648514E0,1.133854130E1
8.591918940E-1,-6.791420937E0,-8.405493736E0,-4.959962368E0,1.189020395E1
8.641662590E-1,-7.157345295E0,-8.810482025E0,-4.878139019E0,1.235509715E1
8.691406250E-1,-7.265349865E0,-9.175069809E0,-4.701819420E0,1.261246687E1
8.741149900E-1,-7.374787807E0,-9.374202728E0,-4.334115505E0,1.269045820E1
8.790588380E-1,-7.350004673E0,-9.598468781E0,-3.948369026E0,1.271781387E1
8.840332030E-1,-7.156508446E0,-9.879904747E0,-3.529021263E0,1.269968984E1
8.890075680E-1,-6.947926521E0,-9.903972626E0,-3.291911125E0,1.253790395E1
8.939819330E-1,-6.629103661E0,-9.998601913E0,-3.367695808E0,1.246027410E1
8.989562980E-1,-6.559583187E0,-1.007347870E1,-3.409531116E0,1.249511933E1
9.039001460E-1,-6.513786316E0,-1.036962032E1,-3.401207924E0,1.270931364E1
9.088745110E-1,-6.539649963E0,-1.073408985E1,-3.307654858E0,1.299724152E1
9.138488770E-1,-6.608889580E0,-1.092246246E1,-3.074912071E0,1.313136291E1
9.187927240E-1,-6.444206238E0,-1.134563923E1,-2.872895718E0,1.336057085E1
9.237670890E-1,-6.445170879E0,-1.180862427E1,-2.524110317E0,1.368776708E1
9.287414550E-1,-6.431048393E0,-1.196146965E1,-2.416797161E0,1.379405844E1
9.337158200E-1,-6.286262512E0,-1.212150574E1,-1.995256424E0,1.379960311E1
9.386596680E-1,-5.945365906E0,-1.245356464E1,-1.569487095E0,1.388891421E1
9.436340330E-1,-5.433445930E0,-1.283099174E1,-1.545494080E0,1.401945918E1
9.486083980E-1,-5.296216488E0,-1.305744362E1,-1.804445744E0,1.420573009E1
9.535827630E-1,-5.558034420E0,-1.311762428E1,-1.933100700E0,1.437708913E1
9.585266110E-1,-5.613939285E0,-1.378215313E1,-1.626288891E0,1.497026636E1
9.635009760E-1,-5.784644604E0,-1.430038738E1,-1.221630573E0,1.547435213E1
9.684753410E-1,-5.678505898E0,-1.493902397E1,-8.511729240E-1,1.600451067E1
9.734497070E-1,-6.062746525E0,-1.508817101E1,-5.500168800E-1,1.626998212E1
9.783935540E-1,-6.794146538E0,-1.548080730E1,-1.025500298E-1,1.690639934E1
9.833679200E-1,-7.483836651E0,-1.606359100E1,7.316951752E-1,1.773646371E1
9.883422850E-1,-7.822664261E0,-1.683895302E1,1.864167452E0,1.866064134E1
9.933166500E-1,-8.014508247E0,-1.722323227E1,2.762413263E0,1.919643194E1
9.982604980E-1,-8.085004807E0,-1.732303429E1,3.368383884E0,1.941135826E1
1.003234863E0,-8.118630409E0,-1.734850883E1,3.932218075E0,1.955365075E1
1.008209228E0,-8.009839058E0,-1.739579964E1,4.563418865E0,1.968746196E1
1.013183593E0,-7.607941628E0,-1.732109833E1,5.035682678E0,1.957701007E1
1.018127441E0,-6.943148613E0,-1.713995361E1,5.215259552E0,1.921416807E1
1.023101806E0,-6.166663170E0,-1.699763298E1,5.126740456E0,1.879443347E1
1.028076172E0,-5.307433128E0,-1.679486465E1,4.901773930E0,1.828288032E1
1.033050537E0,-4.534811020E0,-1.658542061E1,4.826792717E0,1.785885259E1
1.037994384E0,-4.040760040E0,-1.637420082E1,4.851986408E0,1.754947197E1
1.042968750E0,-4.095879555E0,-1.613226318E1,4.737815857E0,1.730528948E1
1.047943115E0,-4.577016830E0,-1.601783943E1,4.407826900E0,1.723221405E1
1.052917480E0,-5.300206184E0,-1.622580719E1,4.151477814E0,1.756712192E1
1.057861328E0,-6.102318764E0,-1.660883141E1,4.654627800E0,1.829636945E1
1.062835693E0,-6.690773010E0,-1.667540169E1,5.728271008E0,1.885864665E1
1.067810058E0,-6.861998558E0,-1.647527695E1,6.663698196E0,1.905063380E1
1.072784423E0,-6.703025818E0,-1.640997124E1,7.275996208E0,1.916136300E1
1.077728271E0,-6.268474579E0,-1.639556503E1,7.721740723E0,1.917638146E1
1.082702636E0,-5.492741585E0,-1.632050323E1,8.083318710E0,1.902285671E1
1.087677002E0,-4.434651375E0,-1.591057301E1,8.221707344E0,1.845017447E1
1.092651367E0,-3.248426437E0,-1.540014172E1,8.115496635E0,1.770813160E1
1.097595214E0,-2.297947884E0,-1.501057148E1,7.935420036E0,1.713384696E1
1.102569580E0,-1.484999657E0,-1.475060272E1,7.554669380E0,1.663906650E1
1.107543945E0,-8.837814331E-1,-1.451135254E1,7.142970562E0,1.619822369E1
1.112518310E0,-6.099262238E-1,-1.434710789E1,6.797863007E0,1.588780841E1
1.117462158E0,-7.752294540E-1,-1.427877903E1,6.394318581E0,1.566434874E1
1.122436523E0,-1.348230362E0,-1.426132965E1,5.970011711E0,1.551915875E1
1.127410888E0,-1.953360558E0,-1.429163551E1,5.738884926E0,1.552421538E1
1.132385254E0,-2.363890648E0,-1.435259914E1,5.636330128E0,1.559978521E1
1.137329101E0,-2.655791283E0,-1.429426861E1,5.604621887E0,1.558175628E1
1.142303466E0,-3.011793137E0,-1.423112202E1,5.538464069E0,1.556503505E1
1.147277832E0,-3.509799004E0,-1.423092079E1,5.700156212E0,1.572671537E1
1.152252197E0,-3.849908829E0,-1.418886662E1,6.217164040E0,1.596242032E1
1.157196045E0,-3.876592636E0,-1.405075836E1,6.834160805E0,1.609837057E1
1.162170410E0,-3.717714310E0,-1.384250641E1,7.285773277E0,1.607852218E1
1.167144775E0,-3.347651482E0,-1.377691650E1,7.535439968E0,1.605593517E1
1.172119140E0,-2.784755707E0,-1.373190498E1,7.757297516E0,1.601548449E1
1.177062988E0,-2.124940872E0,-1.359631348E1,7.903114319E0,1.586928889E1
1.182037353E0,-1.471920013E0,-1.338990974E1,7.991864681E0,1.566289030E1
1.187011718E0,-8.870429993E-1,-1.312980843E1,8.016958237E0,1.540942354E1
1.191986084E0,-5.149030685E-1,-1.287613773E1,8.101484299E0,1.522150111E1
1.196929931E0,-1.979236603E-1,-1.269730663E1,8.245933533E0,1.514120832E1
1.201904297E0,3.020191193E-2,-1.249219990E1,8.383877754E0,1.504477905E1
1.206878662E0,-2.267074585E-2,-1.239880657E1,8.519680977E0,1.504379880E1
1.211853027E0,-2.128591537E-1,-1.239791870E1,8.696304321E0,1.514527669E1
1.216796875E0,-3.864965439E-1,-1.241133595E1,8.973345757E0,1.532029940E1
1.221771240E0,-5.523653030E-1,-1.233166218E1,9.405479431E0,1.551895753E1
1.226745605E0,-5.558910370E-1,-1.224826527E1,9.831170082E0,1.571562668E1
1.231719970E0,-4.899959564E-1,-1.206448746E1,1.016482544E1,1.578339729E1
1.236663818E0,-4.359598160E-1,-1.185760307E1,1.041242790E1,1.578643299E1
1.241638183E0,-3.525438309E-1,-1.160684395E1,1.072831917E1,1.580948911E1
1.246612548E0,-2.779397964E-1,-1.124112988E1,1.116843891E1,1.584847876E1
1.251586914E0,-3.157625198E-1,-1.086593533E1,1.156084061E1,1.586887810E1
1.256530761E0,-3.259496689E-1,-1.057786560E1,1.189433670E1,1.592082691E1
1.261505127E0,-2.452783585E-1,-1.040900993E1,1.212065220E1,1.597866887E1
1.266479492E0,-1.170883179E-1,-1.010073757E1,1.223227787E1,1.586402317E1
1.271453857E0,1.572818756E-1,-9.759858131E0,1.228643608E1,1.569191129E1
1.276397705E0,5.973272324E-1,-9.442993164E0,1.223067379E1,1.546338582E1
1.281372070E0,1.022698402E0,-9.192754745E0,1.209672546E1,1.522771876E1
1.286346435E0,1.387259483E0,-9.016725540E0,1.205569267E1,1.511838464E1
1.291320800E0,1.795388222E0,-8.864600182E0,1.199601936E1,1.502361594E1
1.296264648E0,2.193741798E0,-8.745593071E0,1.198349094E1,1.499673153E1
1.301239013E0,2.591668129E0,-8.490035057E0,1.197455788E1,1.490595436E1
1.306213379E0,2.899058342E0,-8.282868385E0,1.198357773E1,1.485316744E1
1.311187744E0,3.071519852E0,-8.210000992E0,1.195321274E1,1.482287574E1
1.316131591E0,3.345913887E0,-7.998861313E0,1.197503948E1,1.478440031E1
1.321105957E0,3.627057076E0,-7.875380039E0,1.198432636E1,1.479193132E1
1.326080322E0,3.864879608E0,-7.807669163E0,1.199654102E1,1.482612521E1
1.331054687E0,3.992615700E0,-7.484966278E0,1.189041805E1,1.460642810E1
1.335998535E0,4.460163116E0,-7.342691898E0,1.171262646E1,1.452562556E1
1.340972900E0,4.719933510E0,-7.234930515E0,1.154881668E1,1.442210659E1
1.345947265E0,5.049203873E0,-7.235882759E0,1.134926319E1,1.437561248E1
1.350921631E0,5.319636345E0,-7.165877342E0,1.117450142E1,1.430097238E1
1.355865478E0,5.523665428E0,-7.043274403E0,1.101494789E1,1.419322624E1
1.360839843E0,5.692140579E0,-6.973967075E0,1.093043613E1,1.416019475E1
1.365814209E0,5.809382439E0,-6.945053577E0,1.084679890E1,1.412925121E1
1.370788574E0,5.892585754E0,-6.908273697E0,1.075088501E1,1.407225429E1
1.375732422E0,5.809441566E0,-7.192376137E0,1.047402096E1,1.397086257E1
1.380706787E0,5.716893196E0,-7.408679485E0,1.033836842E1,1.394464991E1
1.385681152E0,5.692923546E0,-7.489941597E0,1.015472031E1,1.384293857E1
1.390655517E0,5.683393478E0,-7.707751274E0,9.921846390E0,1.378961301E1
1.395599365E0,5.629900932E0,-7.976676941E0,9.656592369E0,1.373218612E1
1.400573730E0,5.493502617E0,-8.275583267E0,9.366398811E0,1.365259229E1
1.405548095E0,5.360073090E0,-8.659038544E0,9.135654449E0,1.368099098E1
1.410522461E0,5.240121841E0,-9.008930206E0,9.148083687E0,1.386748483E1
1.415466308E0,5.199285507E0,-9.458775520E0,9.344232559E0,1.427640313E1
1.420440673E0,5.127323151E0,-9.725324631E0,9.550491333E0,1.456307888E1
1.425415039E0,5.171710014E0,-9.698708534E0,1.019378281E1,1.499082185E1
1.430389404E0,5.132081985E0,-9.569771767E0,1.147057056E1,1.579534065E1
1.435333252E0,5.271114349E0,-9.359930992E0,1.290885925E1,1.679379653E1
1.440307617E0,5.959368706E0,-9.398926735E0,1.410615921E1,1.796768284E1
1.445281982E0,6.177433014E0,-9.203777313E0,1.524862385E1,1.885180959E1
1.450256347E0,6.479644775E0,-9.162220955E0,1.644807625E1,1.991158712E1
1.455200195E0,6.702766418E0,-9.109823227E0,1.742206955E1,2.077124128E1
1.460174560E0,6.886272430E0,-8.884604454E0,1.782067299E1,2.106972544E1
1.465148925E0,6.986285210E0,-8.537889481E0,1.812983131E1,2.122250035E1
1.470123291E0,6.999458313E0,-8.600219727E0,1.801512909E1,2.115422114E1
1.475067138E0,6.789646149E0,-8.963977814E0,1.763064003E1,2.091151981E1
1.480041504E0,6.496694565E0,-9.368739128E0,1.706357193E1,2.052183715E1
1.485015869E0,6.060655594E0,-9.682708740E0,1.655705452E1,2.011522928E1
1.489990234E0,5.481913567E0,-1.013219643E1,1.606965828E1,1.977237209E1
1.494934082E0,4.910794258E0,-1.070454502E1,1.549590492E1,1.946345945E1
1.499908447E0,4.347125053E0,-1.123382092E1,1.475311661E1,1.904601476E1
1.504882812E0,3.801601410E0,-1.165563774E1,1.400523663E1,1.861324038E1
1.509857177E0,3.381316185E0,-1.200025368E1,1.335371780E1,1.826913152E1
1.514801025E0,3.159973145E0,-1.225309181E1,1.295451069E1,1.810919756E1
1.519775390E0,3.004980087E0,-1.245218754E1,1.270791626E1,1.804378052E1
1.524749756E0,2.811595917E0,-1.263172531E1,1.226693916E1,1.783096611E1
1.529724121E0,2.515493393E0,-1.286743450E1,1.196800613E1,1.775195055E1
1.534667968E0,2.126508713E0,-1.313626289E1,1.186500740E1,1.782868034E1
1.539642334E0,1.709186554E0,-1.352444649E1,1.201244736E1,1.816950365E1
1.544616699E0,1.286503792E0,-1.397152519E1,1.246939468E1,1.877083941E1
1.549591064E0,9.407367706E-1,-1.436537075E1,1.302255154E1,1.941225672E1
1.554534912E0,7.285041809E-1,-1.473820114E1,1.362255573E1,2.008281145E1
1.559509277E0,4.461183548E-1,-1.507574558E1,1.414406204E1,2.067683771E1
1.564483642E0,5.264282227E-2,-1.554971886E1,1.452765751E1,2.128025753E1
1.569458007E0,-4.079084396E-1,-1.614883232E1,1.488259697E1,2.196458211E1
1.574401855E0,-1.082753181E0,-1.659020805E1,1.500082016E1,2.239267655E1
1.579376220E0,-2.102645874E0,-1.696760750E1,1.486491871E1,2.265582998E1
1.584350586E0,-3.334212303E0,-1.748073196E1,1.468730354E1,2.307400804E1
1.589324951E0,-4.634414673E0,-1.813577843E1,1.455494881E1,2.371140640E1
1.594268798E0,-6.097662926E0,-1.898783684E1,1.438669014E1,2.459057328E1
1.599243164E0,-7.667040825E0,-1.930459785E1,1.419168282E1,2.515660697E1
1.604217529E0,-9.083719254E0,-1.920066452E1,1.429768467E1,2.560475074E1
1.609191894E0,-1.065560627E1,-1.909222603E1,1.440221882E1,2.618165286E1
1.614135742E0,-1.111892509E1,-1.901229095E1,1.458503246E1,2.641629941E1
1.619110107E0,-1.107952785E1,-1.893186951E1,1.479021454E1,2.645604027E1
1.624084472E0,-1.102619743E1,-1.886166763E1,1.459750938E1,2.627597412E1
1.629058838E0,-1.099871063E1,-1.880292511E1,1.420103836E1,2.600367510E1
1.634002685E0,-1.095751667E1,-1.875646782E1,1.389361954E1,2.578575034E1
1.638977050E0,-1.091498184E1,-1.872288132E1,1.368708801E1,2.563239145E1
1.643951416E0,-1.087003708E1,-1.870230484E1,1.344409370E1,2.546914934E1
1.648925781E0,-1.082147694E1,-1.869571114E1,1.334482670E1,2.539130516E1
1.653869629E0,-1.076870251E1,-1.870344353E1,1.346286964E1,2.543683574E1
1.658843994E0,-1.071113300E1,-1.872646523E1,1.355641747E1,2.547911546E1
1.663818359E0,-1.064896774E1,-1.876423073E1,1.330493355E1,2.534794125E1
1.668762207E0,-1.058297825E1,-1.881674004E1,1.275273514E1,2.507391848E1
1.673736572E0,-1.051392365E1,-1.888590050E1,1.202171135E1,2.473340599E1
1.678710937E0,-1.044369602E1,-1.897153473E1,1.098303604E1,2.428203034E1
1.683685302E0,-1.037391949E1,-1.907468033E1,9.799095154E0,2.382192060E1
1.688659668E0,-1.030589104E1,-1.919682884E1,8.588708878E0,2.341998181E1
1.693603515E0,-1.024107647E1,-1.933743095E1,7.164300442E0,2.302483624E1
1.698577881E0,-1.018018532E1,-1.949855995E1,5.496057987E0,2.267237673E1
1.703552246E0,-1.012413311E1,-1.967791367E1,3.853484631E0,2.246258447E1
1.708496093E0,-1.007324314E1,-1.987348557E1,2.393326998E0,2.240878555E1
1.713470459E0,-1.002723885E1,-2.008976936E1,1.042147517E0,2.247733132E1
1.718444824E0,-9.986465454E0,-2.032700729E1,-1.577816010E-1,2.264821434E1
1.723419189E0,-9.951274872E0,-2.058760071E1,-1.921135426E0,2.294706813E1
1.728363037E0,-9.922751427E0,-2.087559509E1,-3.473969460E0,2.337348776E1
1.733337402E0,-9.903381348E0,-2.119640923E1,-5.050533772E0,2.393475752E1
1.738311767E0,-9.896526337E0,-2.154920387E1,-6.976672173E0,2.471807791E1
1.743286132E0,-9.906221390E0,-2.193339539E1,-9.138129234E0,2.574320223E1
1.748229980E0,-9.936291695E0,-2.234276962E1,-1.140877724E1,2.698313260E1
1.753204345E0,-9.991495132E0,-2.277787971E1,-1.327280903E1,2.819271606E1
1.758178711E0,-1.007499981E1,-2.322867584E1,-1.487256050E1,2.936443526E1
1.763153076E0,-1.018983269E1,-2.368816376E1,-1.577279472E1,3.022817966E1
1.768096923E0,-1.033754921E1,-2.414708519E1,-1.638283539E1,3.095713072E1
1.773071289E0,-1.052161694E1,-2.460466385E1,-1.715678406E1,3.178756274E1
1.778045654E0,-1.074109173E1,-2.505007553E1,-1.794141960E1,3.263084236E1
1.783020019E0,-1.099513912E1,-2.547656059E1,-1.865220261E1,3.343430702E1
1.787963867E0,-1.128030682E1,-2.587581253E1,-1.844792366E1,3.372134166E1
1.792938232E0,-1.159837055E1,-2.624885368E1,-1.806809998E1,3.391136618E1
1.797912597E0,-1.194435501E1,-2.658889771E1,-1.769313622E1,3.409815489E1
1.802886963E0,-1.194606972E1,-2.689316940E1,-1.732224464E1,3.414690765E1
1.807830810E0,-9.773306847E0,-2.715847015E1,-1.696307755E1,3.347903863E1
1.812805175E0,-7.042456627E0,-2.738927841E1,-1.662629318E1,3.280552381E1
1.817779541E0,-4.825234413E0,-2.758437729E1,-1.631977081E1,3.241165958E1
1.822753906E0,-2.713434219E0,-2.774495697E1,-1.604493904E1,3.216497212E1
1.827728271E0,-9.316115379E-1,-2.787274742E1,-1.579995918E1,3.205302886E1
1.832672119E0,4.700241089E-1,-2.796888733E1,-1.558262634E1,3.202027209E1
1.837646484E0,1.294228554E0,-2.803827667E1,-1.538729286E1,3.200919818E1
1.842620849E0,1.952382565E0,-2.808380508E1,-1.521167183E1,3.199854474E1
1.847595214E0,2.521227360E0,-2.810988235E1,-1.505363941E1,3.198646797E1
1.852539062E0,2.962920666E0,-2.811960602E1,-1.491122437E1,3.196616576E1
1.857513427E0,3.464139700E0,-2.811719513E1,-1.468971825E1,3.191182771E1
1.862487793E0,3.566799402E0,-2.810368347E1,-1.323493004E1,3.126823397E1
1.867431640E0,3.641656160E0,-2.807904816E1,-1.114594269E1,3.042904276E1
1.872406006E0,4.004881859E0,-2.804336929E1,-9.000541687E0,2.972338121E1
1.877380371E0,4.518332958E0,-2.799463654E1,-7.328429699E0,2.928857950E1
1.882354736E0,4.677213669E0,-2.793333054E1,-8.439225197E0,2.955279690E1
1.887298584E0,5.022919178E0,-2.786328888E1,-6.698008537E0,2.909391522E1
1.892272949E0,5.592881680E0,-2.778363037E1,-5.541416168E0,2.887763382E1
1.897247314E0,6.067972660E0,-2.743546104E1,-5.933294296E0,2.871809179E1
1.902221679E0,7.006804943E0,-2.600764656E1,-5.699790001E0,2.753144750E1
1.907196045E0,6.923016071E0,-2.395352745E1,-4.628427982E0,2.535984965E1
1.912139892E0,6.755090237E0,-2.219878960E1,-4.775160313E0,2.369007513E1
1.917114257E0,6.573330402E0,-2.061643410E1,-4.548199177E0,2.211181004E1
1.922088623E0,6.239469528E0,-1.910563469E1,-3.956605911E0,2.048440839E1
1.927032470E0,5.976118088E0,-1.785639000E1,-3.758957386E0,1.920141692E1
1.932006836E0,5.810130596E0,-1.676882744E1,-3.692776680E0,1.812699067E1
1.936981201E0,5.489597321E0,-1.579771805E1,-3.490110397E0,1.708462598E1
1.941955566E0,4.945882320E0,-1.470816231E1,-3.250102520E0,1.585417790E1
1.946899414E0,4.427969933E0,-1.396675301E1,-3.078633308E0,1.497180985E1
1.951873779E0,3.848847628E0,-1.326562881E1,-2.840578556E0,1.410175246E1
1.956848144E0,3.296602488E0,-1.263007355E1,-2.707441807E0,1.333103848E1
1.961822509E0,2.806040764E0,-1.199738407E1,-2.655534744E0,1.260408482E1
1.966766357E0,2.325207472E0,-1.146302032E1,-2.663409233E0,1.199588152E1
1.971740722E0,1.928431034E0,-1.098013210E1,-2.704925060E0,1.147165057E1
1.976715088E0,1.654443979E0,-1.065550041E1,-2.685321808E0,1.111250769E1
1.981689453E0,1.364365935E0,-1.005116463E1,-2.443911552E0,1.043360477E1
1.986633300E0,1.137874484E0,-9.402110100E0,-2.552674294E0,9.808699135E0
1.991607666E0,1.277898431E0,-9.067041397E0,-2.730131626E0,9.554992558E0
1.996582031E0,1.182712674E0,-8.543124199E0,-2.431868076E0,8.960901890E0
2.001556396E0,1.301354647E0,-8.141815186E0,-2.245903969E0,8.545569792E0
2.006500244E0,1.516632915E0,-7.861685276E0,-2.109791756E0,8.279945171E0
2.011474609E0,1.633865833E0,-7.403185368E0,-1.844775200E0,7.802555138E0
2.016448974E0,1.786941290E0,-6.943088531E0,-1.617475033E0,7.349548490E0
2.021423339E0,1.978945851E0,-6.718175411E0,-1.418723106E0,7.145829748E0
2.026367187E0,1.264880061E0,-7.106941700E0,-1.334931850E0,7.341020702E0
2.031341552E0,4.446766078E-1,-6.736966610E0,-1.334825039E0,6.882311695E0
2.036315918E0,4.237827659E-1,-5.572393417E0,-1.117920399E0,5.699202247E0
2.041290283E0,1.260908842E0,-5.334601879E0,-1.559023857E-1,5.483810160E0
2.046234131E0,1.530332446E0,-5.039838791E0,-1.470127106E-1,5.269108575E0
2.051208496E0,1.552611351E0,-4.694605350E0,-5.504307747E-1,4.975228180E0
2.056182861E0,1.839676619E0,-4.712235451E0,1.823348999E-1,5.061898756E0
2.061157226E0,2.082553864E0,-4.639461517E0,1.831159592E-1,5.088729234E0
2.066101074E0,2.272227526E0,-4.492049217E0,-2.094607353E-1,5.038392392E0
2.071075439E0,2.103974819E0,-4.194415569E0,-4.611349106E-2,4.692755956E0
2.076049804E0,1.768856645E0,-3.851835728E0,-3.870439529E-2,4.238748675E0
2.081024170E0,1.530940175E0,-3.866845608E0,-1.337981224E-1,4.161030487E0
2.085968017E0,1.152093172E0,-3.807578564E0,-1.694941521E-1,3.981670687E0
2.090942382E0,8.940738440E-1,-3.747255802E0,-4.377431870E-1,3.877230092E0
2.095916748E0,5.490896702E-1,-3.627875328E0,-7.258486748E-1,3.740298806E0
2.100891113E0,2.067604214E-1,-3.549644947E0,-7.856922150E-1,3.641433973E0
2.105834961E0,-3.970563784E-2,-3.519501209E0,-8.583912849E-1,3.622885714E0
2.110809326E0,-1.487344503E-1,-3.555284977E0,-1.007839680E0,3.698366399E0
2.115783691E0,-2.701891959E-1,-3.537459850E0,-1.089932442E0,3.711411742E0
2.120758056E0,-3.686040044E-1,-3.466511250E0,-1.086732388E0,3.651514266E0
2.125701904E0,-3.467306793E-1,-3.434519291E0,-1.201352119E0,3.655050183E0
2.130676269E0,-1.614333689E-1,-3.438079834E0,-1.430713654E0,3.727384503E0
2.135650634E0,1.121436059E-1,-3.596067429E0,-1.564292908E0,3.923173389E0
2.140625000E0,7.576718926E-2,-3.562114716E0,-1.544074059E0,3.883113005E0
2.145568847E0,1.367626935E-1,-3.510786533E0,-1.578064919E0,3.851573056E0
2.150543213E0,3.277945518E-1,-3.604753017E0,-1.733172894E0,4.013176032E0
2.155517578E0,4.046079516E-1,-3.651654243E0,-1.739447594E0,4.064967926E0
2.160491943E0,6.513122320E-1,-3.763037205E0,-1.814429283E0,4.228097711E0
2.165435791E0,8.857978582E-1,-3.875700951E0,-1.864413738E0,4.391097163E0
2.170410156E0,1.125966430E0,-4.004240036E0,-1.933302879E0,4.586872430E0
2.175384521E0,1.349880099E0,-4.167246342E0,-1.959052563E0,4.798541997E0
2.180358886E0,1.519796729E0,-4.293101788E0,-1.875627041E0,4.925290027E0
2.185302734E0,1.683068752E0,-4.421705723E0,-1.769192219E0,5.051162543E0
2.190277099E0,1.783482552E0,-4.625909328E0,-1.696092606E0,5.239902409E0
2.195251464E0,1.741432309E0,-4.842448711E0,-1.586779594E0,5.385143033E0
2.200225830E0,1.593348265E0,-5.033150673E0,-1.423608303E0,5.467908649E0
2.205169677E0,1.510331154E0,-5.319805145E0,-1.310626030E0,5.683235660E0
2.210144043E0,1.458267212E0,-5.612578392E0,-1.436418533E0,5.974184268E0
2.215118408E0,1.316234350E0,-5.904946327E0,-1.448198318E0,6.220783099E0
2.220092773E0,1.046671152E0,-6.118494511E0,-1.360458851E0,6.354710368E0
2.225036621E0,8.568059206E-1,-6.415540695E0,-1.458003998E0,6.634685709E0
2.230010986E0,6.455460787E-1,-6.775294781E0,-1.551929474E0,6.980675769E0
2.234985351E0,4.019922614E-1,-7.089152336E0,-1.441124916E0,7.245310183E0
2.239959716E0,1.839672327E-1,-7.290030003E0,-1.495988369E0,7.444216720E0
2.244903564E0,1.015663147E-3,-7.243838310E0,-1.640800476E0,7.427342775E0
2.249877929E0,-1.158114672E-1,-7.393345356E0,-1.830922127E0,7.617561531E0
2.254852295E0,-2.335457802E-1,-7.590210915E0,-2.192620277E0,7.904013477E0
2.259826660E0,-4.777580500E-1,-7.741111279E0,-2.444618225E0,8.131987140E0
2.264770507E0,-6.520463228E-1,-7.930465698E0,-2.471100807E0,8.332093962E0
2.269744873E0,-5.965756178E-1,-8.121749878E0,-2.718379974E0,8.585354578E0
2.274719238E0,-7.233759165E-1,-8.212398529E0,-2.799884319E0,8.706670691E0
2.279693603E0,-9.897340536E-1,-8.237127304E0,-2.827889442E0,8.765089755E0
2.284667968E0,-1.225437284E0,-8.470933914E0,-2.902002335E0,9.037700784E0
2.289642334E0,-1.567772865E0,-8.666110992E0,-2.797770023E0,9.240503698E0
2.294586181E0,-1.887239933E0,-8.892717361E0,-2.704529762E0,9.484544157E0
2.299560547E0,-2.291120529E0,-9.100290298E0,-2.613420010E0,9.741379827E0
2.304534912E0,-2.643887520E0,-9.437670708E0,-2.399690628E0,1.009050468E1
2.309509277E0,-3.000206232E0,-9.743972778E0,-2.080050468E0,1.040542421E1
2.314453125E0,-3.371232033E0,-9.882432938E0,-1.846421242E0,1.060362945E1
2.319427490E0,-3.595459938E0,-1.007973671E1,-1.590313435E0,1.081931241E1
2.324401855E0,-3.721651793E0,-1.020869255E1,-1.347810745E0,1.094918670E1
2.329345703E0,-3.835954905E0,-1.032755947E1,-1.164056301E0,1.107826980E1
2.334320068E0,-3.877941132E0,-1.051019573E1,-1.040706635E0,1.125103160E1
2.339294433E0,-3.984718084E0,-1.061059189E1,-1.055556774E0,1.138318227E1
2.344268798E0,-4.047755718E0,-1.067333412E1,-1.145711422E0,1.147244709E1
2.349212646E0,-3.992975235E0,-1.081522179E1,-1.183004856E0,1.158932155E1
2.354187011E0,-3.939894676E0,-1.092995358E1,-1.373350143E0,1.169926262E1
2.359161377E0,-3.776244879E0,-1.098234844E1,-1.616246223E0,1.172536799E1
2.364105224E0,-3.574870348E0,-1.105914783E1,-1.771638870E0,1.175683432E1
2.369079589E0,-3.302674532E0,-1.115345764E1,-1.931309700E0,1.179140507E1
2.374053955E0,-2.897663116E0,-1.134451675E1,-2.055947781E0,1.188786916E1
2.379028320E0,-2.473430157E0,-1.151412296E1,-2.166957378E0,1.197449743E1
2.383972168E0,-2.211413622E0,-1.163579369E1,-2.277459621E0,1.206104752E1
2.388946533E0,-2.080226660E0,-1.184065628E1,-2.311381817E0,1.224217995E1
2.393920898E0,-2.112031460E0,-1.215751457E1,-2.245117188E0,1.254218436E1
2.398895263E0,-2.274575233E0,-1.259663582E1,-2.110931873E0,1.297324014E1
2.403839111E0,-2.531955481E0,-1.305039120E1,-1.907896042E0,1.342995072E1
2.408813476E0,-2.919163704E0,-1.345369244E1,-1.821292400E0,1.388670094E1
2.413787841E0,-3.262714863E0,-1.389619255E1,-1.775274277E0,1.438405626E1
2.418762207E0,-3.615484238E0,-1.439353561E1,-1.713551044E0,1.493927210E1
2.423706054E0,-3.997847080E0,-1.488296986E1,-1.582969189E0,1.549165467E1
2.428680420E0,-4.334429741E0,-1.543212700E1,-1.528158188E0,1.610195927E1
2.433654785E0,-4.561766624E0,-1.587732124E1,-1.468050957E0,1.658475861E1
2.438629150E0,-4.782909393E0,-1.623481750E1,-1.423227787E0,1.698443696E1
2.443572998E0,-5.054375172E0,-1.662342453E1,-1.427189827E0,1.743335373E1
2.448547363E0,-5.331845284E0,-1.719165993E1,-1.424649239E0,1.805578496E1
2.453521728E0,-5.706031799E0,-1.770425797E1,-1.439883232E0,1.865670959E1
2.458496093E0,-6.098506927E0,-1.819674873E1,-1.390248775E0,1.924178378E1
2.463439941E0,-6.681677341E0,-1.851259232E1,-1.308663845E0,1.972494581E1
2.468414306E0,-7.368400097E0,-1.872533035E1,-1.069655895E0,2.015131461E1
2.473388672E0,-8.043945312E0,-1.903920364E1,-7.792143822E-1,2.068341139E1
2.478363037E0,-8.582689285E0,-1.959532928E1,-5.694479942E-1,2.140008776E1
2.483306884E0,-8.994806290E0,-2.014427948E1,-3.157076836E-1,2.206350397E1
2.488281250E0,-9.345657349E0,-2.045448685E1,-5.025815964E-2,2.248843857E1
2.493255615E0,-9.694534302E0,-2.073059845E1,1.111402512E-1,2.288567368E1
2.498229980E0,-9.963552475E0,-2.092378998E1,3.086938858E-1,2.317698550E1
2.503173828E0,-1.001844788E1,-2.114891624E1,4.864921570E-1,2.340689280E1
2.508148193E0,-9.893375397E0,-2.135603333E1,5.826249123E-1,2.354354451E1
2.513122558E0,-9.587564468E0,-2.143332100E1,7.684807777E-1,2.349253507E1
2.518096923E0,-9.105131149E0,-2.159513664E1,8.751330376E-1,2.345248809E1
2.523040771E0,-8.651291847E0,-2.180449486E1,8.451566696E-1,2.347328559E1
2.528015136E0,-8.432291985E0,-2.215784264E1,7.607207298E-1,2.372029162E1
2.532989502E0,-8.385224342E0,-2.244008064E1,6.930606365E-1,2.396559074E1
2.537963867E0,-8.382905960E0,-2.277710724E1,5.882565975E-1,2.427788649E1
2.542907714E0,-8.357643127E0,-2.298998260E1,5.277817249E-1,2.446769406E1
2.547882080E0,-8.253094673E0,-2.296441650E1,6.733772755E-1,2.441170690E1
2.552856445E0,-8.124193192E0,-2.284296608E1,7.064466476E-1,2.425495168E1
2.557830810E0,-8.030529976E0,-2.271900940E1,6.488275528E-1,2.410526451E1
2.562774658E0,-7.926425457E0,-2.259827423E1,7.098422050E-1,2.395859125E1
2.567749023E0,-8.008783340E0,-2.247230339E1,7.611713409E-1,2.386890052E1
2.572723388E0,-8.093843460E0,-2.234371376E1,9.148473740E-1,2.378211076E1
2.577697754E0,-8.324973106E0,-2.221260643E1,1.206782341E0,2.375208170E1
2.582641601E0,-8.659080505E0,-2.208005333E1,1.518780231E0,2.376583943E1
2.587615966E0,-8.773072243E0,-2.194495964E1,1.834877968E0,2.370474272E1
2.592590332E0,-8.843495369E0,-2.180780220E1,2.034515619E0,2.362047631E1
2.597564697E0,-8.860028267E0,-2.166912842E1,2.334760427E0,2.352663031E1
2.602508545E0,-8.646047592E0,-2.152924347E1,2.581961870E0,2.334371415E1
2.607482910E0,-8.432119370E0,-2.138660240E1,2.839223862E0,2.316351855E1
2.612457275E0,-8.190675735E0,-2.124178696E1,3.017076015E0,2.296526572E1
2.617431640E0,-7.826187134E0,-2.109489441E1,3.089510441E0,2.271098523E1
2.622375488E0,-7.529627800E0,-2.094683456E1,3.084606171E0,2.247175935E1
2.627349853E0,-7.462365150E0,-2.079633522E1,3.010864735E0,2.229887348E1
2.632324218E0,-7.631425858E0,-2.064514923E1,2.978674412E0,2.221110868E1
2.637298584E0,-7.865833282E0,-2.049466515E1,3.103507757E0,2.217057494E1
2.642242431E0,-7.789188385E0,-2.034696579E1,3.296673298E0,2.203493879E1
2.647216797E0,-7.520077705E0,-2.020134544E1,3.450179100E0,2.183001746E1
2.652191162E0,-7.518113136E0,-2.005877876E1,3.436175823E0,2.169525144E1
2.657165527E0,-7.777103424E0,-1.991971016E1,3.484913349E0,2.166616744E1
2.662109375E0,-8.079830170E0,-1.978560638E1,3.857665539E0,2.171716968E1
2.667083740E0,-8.262052536E0,-1.965582085E1,4.420305252E0,2.177502936E1
2.672058105E0,-8.405124664E0,-1.953176880E1,5.213683605E0,2.189334624E1
2.677032470E0,-8.503127098E0,-1.941434479E1,5.949580193E0,2.201402867E1
2.681976318E0,-8.478043556E0,-1.930473900E1,6.536822796E0,2.207442463E1
2.686950683E0,-8.319397926E0,-1.920248222E1,7.286454201E0,2.215942509E1
2.691925048E0,-7.855589867E0,-1.910815430E1,7.969415188E0,2.214369958E1
2.696899414E0,-7.237929344E0,-1.902172470E1,8.495452881E0,2.205416857E1
2.701873779E0,-6.598868370E0,-1.894270897E1,8.977686882E0,2.197658182E1
2.706817627E0,-5.924442291E0,-1.887097549E1,9.218301773E0,2.182177399E1
2.711791992E0,-5.303635597E0,-1.880557632E1,9.451553345E0,2.170507111E1
2.716766357E0,-4.709653854E0,-1.874665833E1,9.725435257E0,2.163797885E1
2.721710205E0,-4.007509232E0,-1.869406891E1,9.903090477E0,2.153136186E1
2.726684570E0,-3.380058289E0,-1.864706612E1,9.976222992E0,2.141641646E1
2.731658935E0,-2.752043724E0,-1.860554504E1,9.907664299E0,2.125798351E1
2.736633300E0,-2.216529846E0,-1.856904221E1,9.900917053E0,2.116011558E1
2.741577148E0,-1.719099998E0,-1.853714371E1,9.913036346E0,2.109145067E1
2.746551513E0,-1.234901428E0,-1.850962448E1,9.887907982E0,2.102146294E1
2.751525879E0,-7.517957687E-1,-1.848579025E1,9.784007072E0,2.092884212E1
2.756500244E0,-6.083297729E-1,-1.846478844E1,9.638048172E0,2.083771700E1
2.761444091E0,-2.034626007E-1,-1.844734001E1,9.246229172E0,2.063585483E1
2.766418457E0,2.035474777E-1,-1.843246651E1,8.932176590E0,2.048367720E1
2.771392822E0,3.862934113E-1,-1.841944885E1,8.791927338E0,2.041380182E1
2.776367187E0,7.657852173E-1,-1.840817451E1,8.674310684E0,2.036396282E1
2.781311035E0,1.019427299E0,-1.830793190E1,8.605406761E0,2.025518768E1
2.786285400E0,1.432119370E0,-1.787950325E1,8.437297821E0,1.982209870E1
2.791259765E0,1.921715736E0,-1.732678986E1,8.368939400E0,1.933778128E1
2.796234131E0,2.413275719E0,-1.671677208E1,8.381535530E0,1.885535750E1
2.801177978E0,2.721134186E0,-1.597209740E1,8.500270844E0,1.829664097E1
2.806152343E0,2.988924980E0,-1.525950813E1,8.754766464E0,1.784466858E1
2.811126709E0,3.109148026E0,-1.461391258E1,9.151083946E0,1.752071859E1
2.816101074E0,3.105898857E0,-1.404444981E1,9.467073441E0,1.721971712E1
2.821044922E0,3.180999756E0,-1.353292561E1,9.554033279E0,1.686826567E1
2.826019287E0,3.208872795E0,-1.305150414E1,9.551085472E0,1.648823394E1
2.830993652E0,3.210473061E0,-1.258602524E1,9.522125244E0,1.610546608E1
2.835968017E0,3.217364311E0,-1.212035370E1,9.526306152E0,1.574817182E1
2.840911865E0,3.352453232E0,-1.170605564E1,9.463981628E0,1.542198527E1
2.845886230E0,3.602500916E0,-1.119195366E1,9.306413651E0,1.499490495E1
2.850860595E0,3.837669373E0,-1.056265831E1,9.134227753E0,1.448211219E1
2.855834961E0,4.067138672E0,-1.005268574E1,8.948948860E0,1.405993575E1
2.860778808E0,4.177657127E0,-9.378198624E0,8.738565445E0,1.348206047E1
2.865753173E0,4.585585594E0,-8.987071037E0,8.476402283E0,1.317742147E1
2.870727539E0,4.683609009E0,-8.522802353E0,8.375279427E0,1.283431567E1
2.875701904E0,4.766303062E0,-8.086012840E0,8.255386353E0,1.250010609E1
2.880645752E0,4.763345718E0,-7.722777367E0,8.150868416E0,1.219702458E1
2.885620117E0,4.691313744E0,-7.405150414E0,8.173438072E0,1.198539808E1
2.890594482E0,4.604959488E0,-7.180955887E0,8.200217247E0,1.183280788E1
2.895568847E0,4.545430183E0,-6.966731071E0,8.331775665E0,1.177347710E1
2.900512695E0,4.350742340E0,-6.633784294E0,8.509016991E0,1.163354731E1
2.905487060E0,4.080089569E0,-6.263401031E0,8.643436432E0,1.142743701E1
2.910461425E0,3.774683952E0,-6.062788963E0,8.757385254E0,1.130032944E1
2.915435791E0,3.542070389E0,-5.991487503E0,8.921682358E0,1.131550269E1
2.920379638E0,3.430905342E0,-5.892832756E0,8.985754967E0,1.128008784E1
2.925354004E0,3.342806816E0,-5.732357979E0,8.922865868E0,1.111988402E1
2.930328369E0,3.320739746E0,-5.557803154E0,8.743153572E0,1.087930249E1
2.935302734E0,3.248819351E0,-5.374803066E0,8.666054726E0,1.070251558E1
2.940246582E0,3.238432884E0,-5.052408695E0,8.508515358E0,1.041196978E1
2.945220947E0,3.428146362E0,-5.066605568E0,8.478610992E0,1.045511950E1
2.950195312E0,3.540583611E0,-4.893781185E0,8.580827713E0,1.049358999E1
2.955169677E0,3.756102562E0,-4.738747597E0,8.598234177E0,1.051159675E1
2.960113525E0,3.841960907E0,-4.657045364E0,8.655501366E0,1.055302985E1
2.965087890E0,3.808486938E0,-4.549729347E0,8.842947006E0,1.064905262E1
2.970062256E0,3.849722862E0,-4.439090729E0,8.993625641E0,1.074296024E1
2.975036621E0,3.854960442E0,-4.401618958E0,9.266569138E0,1.095920951E1
2.979980468E0,4.054377556E0,-4.385311127E0,9.452093124E0,1.118083161E1
2.984954834E0,4.353996277E0,-4.031960487E0,9.599259377E0,1.128537857E1
2.989929199E0,4.573339462E0,-4.328289986E0,9.685050964E0,1.155204485E1
2.994903564E0,4.763462067E0,-4.871520042E0,9.917052269E0,1.203204904E1
2.999847412E0,4.931159973E0,-4.990461349E0,1.002825928E1,1.223875105E1
3.004821777E0,4.919430733E0,-4.905488968E0,1.017046261E1,1.231677435E1
3.009796142E0,4.827404976E0,-4.858380318E0,1.044440651E1,1.248972880E1
3.014770507E0,4.760152817E0,-4.822960854E0,1.072790432E1,1.268889031E1
3.019744873E0,4.640944481E0,-4.765879631E0,1.101801682E1,1.287045721E1
3.024688720E0,4.513330460E0,-4.724007607E0,1.121358204E1,1.297809007E1
3.029663086E0,4.405579567E0,-5.382701874E0,1.140935612E1,1.336248546E1
3.034637451E0,4.248422623E0,-5.674407005E0,1.163193989E1,1.362167446E1
3.039581298E0,4.057475090E0,-5.462992191E0,1.176928711E1,1.359498094E1
3.044555664E0,3.847276688E0,-5.268199921E0,1.196061611E1,1.362394238E1
3.049530029E0,3.655318260E0,-5.189068794E0,1.230437088E1,1.384504710E1
3.054504394E0,3.588742256E0,-5.297364235E0,1.271468830E1,1.423391855E1
3.059448242E0,3.576939583E0,-5.372335911E0,1.300590515E1,1.451929953E1
3.064422607E0,3.505481720E0,-5.406026363E0,1.324121475E1,1.472559986E1
3.069396972E0,3.451375961E0,-5.644180298E0,1.341528702E1,1.495789735E1
3.074371338E0,3.433025360E0,-5.847372055E0,1.365819263E1,1.524872615E1
3.079315185E0,3.362941742E0,-5.885959625E0,1.381438828E1,1.538802201E1
3.084289550E0,3.303724289E0,-5.919376850E0,1.369098186E1,1.527732309E1
3.089263916E0,3.329226494E0,-5.971218109E0,1.351972389E1,1.514998775E1
3.094238281E0,3.225591660E0,-6.078369141E0,1.328055859E1,1.495741453E1
3.099182129E0,2.961695671E0,-6.334638596E0,1.305247402E1,1.480764551E1
3.104156494E0,2.612380981E0,-6.632025242E0,1.289907551E1,1.473751818E1
3.109130859E0,2.286693573E0,-6.979221821E0,1.281890011E1,1.477371669E1
3.114105224E0,2.019525528E0,-7.354435921E0,1.278625107E1,1.488806325E1
3.119049072E0,1.805791855E0,-7.708724022E0,1.281346512E1,1.506221095E1
3.124023437E0,1.697598457E0,-8.025363922E0,1.275341511E1,1.516370349E1
3.128997802E0,1.704531670E0,-8.252996445E0,1.263272476E1,1.518562193E1
3.133972168E0,1.717736244E0,-8.501181602E0,1.239300442E1,1.512637646E1
3.138916015E0,1.836933136E0,-8.710699081E0,1.211854172E1,1.503694301E1
3.143890381E0,1.960837364E0,-8.919265747E0,1.183669472E1,1.495010122E1
3.148864746E0,2.116880417E0,-9.109685898E0,1.145413017E1,1.478731409E1
3.153839111E0,2.148443222E0,-9.245643616E0,1.103603745E1,1.455650565E1
3.158782959E0,2.076685905E0,-9.481444359E0,1.060498047E1,1.437623116E1
3.163757324E0,1.995614052E0,-9.817767143E0,1.009843254E1,1.422495578E1
3.168731689E0,1.894680977E0,-1.035007000E1,9.658731461E0,1.428302694E1
3.173706054E0,1.809217453E0,-1.084957886E1,9.235767365E0,1.436266090E1
3.178649902E0,1.844908714E0,-1.124973106E1,8.815797806E0,1.441105229E1
3.183624267E0,2.008029938E0,-1.150110149E1,8.350477219E0,1.435402346E1
3.188598632E0,2.139108658E0,-1.161397552E1,7.921212673E0,1.421990941E1
3.193572998E0,2.086163521E0,-1.195197678E1,7.547158718E0,1.428850698E1
3.198516845E0,1.871510506E0,-1.250133896E1,7.288644791E0,1.459144853E1
3.203491211E0,1.658025742E0,-1.308185005E1,7.134080410E0,1.499262997E1
3.208465576E0,1.387310028E0,-1.354778099E1,7.010000706E0,1.531688966E1
3.213439941E0,1.081600189E0,-1.397037983E1,6.794934750E0,1.557281316E1
3.218383789E0,6.802005768E-1,-1.451395321E1,6.622133732E0,1.596778525E1
3.223358154E0,2.526826859E-1,-1.512704563E1,6.506876945E0,1.646908636E1
3.228332519E0,-1.619310379E-1,-1.571018696E1,6.524422169E0,1.701188645E1
3.233306884E0,-7.657747269E-1,-1.614743233E1,6.570159912E0,1.744972730E1
3.238250732E0,-1.490340233E0,-1.667646790E1,6.688446045E0,1.802944830E1
3.243225097E0,-2.267846107E0,-1.724940109E1,6.994122505E0,1.875107233E1
3.248199463E0,-2.970088959E0,-1.802471161E1,7.490445137E0,1.974381993E1
3.253143310E0,-3.648095131E0,-1.803727913E1,8.099687576E0,2.010614273E1
3.258117675E0,-4.228800774E0,-1.798547935E1,8.893253326E0,2.050488182E1
3.263092041E0,-4.873399734E0,-1.795919800E1,9.738647461E0,2.100295389E1
3.268066406E0,-5.419951439E0,-1.793489838E1,1.063522053E1,2.154401005E1
3.273010254E0,-6.028904915E0,-1.791606331E1,1.157453442E1,2.216535283E1
3.277984619E0,-6.792192459E0,-1.790665436E1,1.254658222E1,2.289538980E1
3.282958984E0,-7.655248642E0,-1.790687943E1,1.356206894E1,2.373160080E1
3.287933349E0,-8.574633598E0,-1.791648102E1,1.449979973E1,2.459204802E1
3.292907714E0,-9.624475479E0,-1.793518829E1,1.534071827E1,2.548801962E1
3.297851562E0,-1.088536739E1,-1.796189880E1,1.615279198E1,2.649591894E1
3.302825927E0,-1.108560658E1,-1.799703979E1,1.687006187E1,2.704409551E1
3.307800293E0,-1.103984642E1,-1.804043198E1,1.771832466E1,2.759120193E1
3.312774658E0,-1.100556755E1,-1.809327698E1,1.828291130E1,2.797774177E1
3.317718506E0,-1.097639084E1,-1.815685272E1,1.817027473E1,2.793405342E1
3.322692871E0,-1.094066143E1,-1.823532104E1,1.801681137E1,2.787167914E1
3.327667236E0,-1.090680313E1,-1.832980919E1,1.785973358E1,2.781924411E1
3.332611084E0,-1.087520790E1,-1.844235229E1,1.767052460E1,2.776036643E1
3.337585449E0,-1.084619999E1,-1.857729721E1,1.746427917E1,2.770842964E1
3.342559814E0,-1.081997299E1,-1.873478317E1,1.725111198E1,2.767064836E1
3.347534179E0,-1.079544163E1,-1.891477585E1,1.704400826E1,2.765517172E1
3.352478027E0,-1.077095890E1,-1.911605072E1,1.685526466E1,2.766833746E1
3.357452392E0,-1.074497700E1,-1.934311867E1,1.668971443E1,2.771565150E1
3.362426757E0,-1.071715546E1,-1.959653854E1,1.655145073E1,2.779986088E1
3.367401123E0,-1.068732452E1,-1.987819862E1,1.644446564E1,2.792457943E1
3.372375488E0,-1.065614986E1,-2.018954277E1,1.635291290E1,2.808182557E1
3.377319336E0,-1.062507439E1,-2.052886200E1,1.512559605E1,2.762444636E1
3.382293701E0,-1.059558678E1,-2.090123749E1,1.258450890E1,2.659883553E1
3.387268066E0,-1.057013130E1,-2.130462646E1,9.851556778E0,2.574233780E1
3.392211914E0,-1.055207539E1,-2.173375511E1,7.079966545E0,2.517594750E1
3.397186279E0,-1.054615593E1,-2.218909645E1,3.846572876E0,2.486711743E1
3.402160644E0,-1.055793095E1,-2.266135979E1,8.709244728E-1,2.501530817E1
3.407135009E0,-1.059362984E1,-2.314505196E1,-1.469849706E0,2.549664451E1
3.412109375E0,-1.066076183E1,-2.363456726E1,-3.420834064E0,2.615237500E1
3.417053222E0,-1.076678276E1,-2.412100983E1,-5.294928074E0,2.694035986E1
3.422027588E0,-1.092079353E1,-2.460415840E1,-7.350698471E0,2.790449982E1
3.427001953E0,-1.112730885E1,-2.507313538E1,-9.282186508E0,2.895924906E1
3.431976318E0,-1.138836765E1,-2.552033997E1,-1.128514481E1,3.013863240E1
3.436920166E0,-1.170079136E1,-2.593556213E1,-1.351272011E1,3.149850006E1
3.441894531E0,-1.206540585E1,-2.631789970E1,-1.613261032E1,3.314312868E1
3.446868896E0,-1.247398376E1,-2.665796280E1,-1.767130661E1,3.432961300E1
3.451843261E0,-1.159964848E1,-2.695063400E1,-1.728156853E1,3.405203560E1
3.456817627E0,-8.469262123E0,-2.719414139E1,-1.675202370E1,3.304360792E1
3.461791992E0,-5.446683884E0,-2.738936615E1,-1.629440308E1,3.233189316E1
3.466735839E0,-2.549513340E0,-2.753826141E1,-1.587024307E1,3.188605456E1
3.471710205E0,-2.040023804E-1,-2.764667130E1,-1.548286533E1,3.168752388E1
3.476654052E0,1.422705173E0,-2.771671104E1,-1.514122391E1,3.161481967E1
3.481628418E0,2.139955044E0,-2.775638962E1,-1.483968163E1,3.154699230E1
3.486602783E0,2.535901785E0,-2.777393913E1,-1.458033943E1,3.147076089E1
3.491546631E0,2.714711666E0,-2.777626228E1,-1.436347866E1,3.138789456E1
3.496520996E0,2.905371428E0,-2.776728630E1,-1.418296814E1,3.131485202E1
3.501495361E0,2.578305244E0,-2.774864960E1,-1.403544331E1,3.120302680E1
3.506469726E0,1.985578060E0,-2.772172928E1,-1.391426468E1,3.108124122E1
3.511413574E0,1.422458172E0,-2.768881989E1,-1.368105507E1,3.091707298E1
3.516387939E0,9.893441200E-1,-2.765185356E1,-1.251173973E1,3.036688061E1
3.521362304E0,1.042729020E0,-2.761160660E1,-1.101072884E1,2.974431462E1
3.526336670E0,1.220812201E0,-2.756772423E1,-9.464771271E0,2.917279035E1
3.531280517E0,1.450618744E0,-2.751906586E1,-8.248632431E0,2.876531275E1
3.536254882E0,1.701971054E0,-2.746451187E1,-7.107174397E0,2.842020488E1
3.541229248E0,2.044935703E0,-2.740290833E1,-6.028131962E0,2.813253493E1
3.546203613E0,2.158663273E0,-2.733415604E1,-6.932477474E0,2.828206423E1
3.551147461E0,2.593360424E0,-2.692407799E1,-6.205873489E0,2.775147491E1
3.556121826E0,3.096815109E0,-2.524425125E1,-5.504937172E0,2.602242914E1
3.561096191E0,3.241837740E0,-2.318819046E1,-5.739622593E0,2.410694830E1
3.566070556E0,3.445284128E0,-2.140010834E1,-5.481254578E0,2.235796886E1
3.571014404E0,3.508518219E0,-1.983924484E1,-4.809239388E0,2.071313881E1
3.575988769E0,3.326794624E0,-1.842209816E1,-4.319662571E0,1.921199489E1
3.580963134E0,3.021241188E0,-1.715529442E1,-3.962831020E0,1.786437949E1
3.585937500E0,2.637350559E0,-1.629798508E1,-3.691538334E0,1.691766505E1
3.590881347E0,2.212232590E0,-1.574065208E1,-3.449532986E0,1.626534288E1
3.595855713E0,1.844157934E0,-1.522072124E1,-3.355056763E0,1.569482971E1
3.600830078E0,1.598666430E0,-1.475045395E1,-3.487398148E0,1.524118013E1
3.605804443E0,9.608154297E-1,-1.383872604E1,-2.982747555E0,1.418909045E1
3.610748291E0,6.048753262E-1,-1.332827377E1,-2.493898392E0,1.357307206E1
3.615722656E0,4.648581743E-1,-1.273652363E1,-1.948831081E0,1.289314042E1
3.620697021E0,3.896076679E-1,-1.197415161E1,-1.930564404E0,1.213503934E1
3.625671386E0,3.841226101E-1,-1.113118267E1,-1.982850075E0,1.131293385E1
3.630615234E0,4.201887846E-1,-1.025749016E1,-1.419423103E0,1.036375535E1
3.635589599E0,6.005948782E-1,-9.483002663E0,-1.114053726E0,9.567087823E0
3.640563964E0,7.760701180E-1,-8.793049812E0,-1.084028244E0,8.893544123E0
3.645538330E0,8.636875153E-1,-8.208835602E0,-8.524022102E-1,8.298043600E0
3.650482177E0,1.025736094E0,-7.869509697E0,-4.941196442E-1,7.951444625E0
3.655456543E0,8.168761730E-1,-6.959705353E0,-4.150891304E-1,7.019763833E0
3.660430908E0,7.866590023E-1,-6.352586746E0,-5.455403328E-1,6.424313583E0
3.665405273E0,9.174270630E-1,-6.006016731E0,-1.438817978E-1,6.077385241E0
3.670349121E0,9.655728340E-1,-5.667069912E0,5.744762421E-1,5.777372693E0
3.675323486E0,9.558664560E-1,-5.266269207E0,3.404479027E-1,5.363131251E0
3.680297851E0,9.622824192E-1,-4.972531796E0,4.183983803E-1,5.082038677E0
3.685272216E0,9.604555368E-1,-4.790437698E0,7.772941589E-1,4.947216833E0
3.690216064E0,7.968364954E-1,-4.587950230E0,5.579118729E-1,4.689936180E0
3.695190429E0,6.666826010E-1,-4.384753704E0,6.144590378E-1,4.477509424E0
3.700164795E0,5.530414581E-1,-4.211907387E0,6.068816185E-1,4.291191442E0
3.705139160E0,6.006935835E-1,-3.988699913E0,4.943900108E-1,4.063862850E0
3.710083007E0,6.872354746E-1,-3.810175896E0,4.781289101E-1,3.901069111E0
3.715057373E0,7.928614616E-1,-3.548967838E0,4.138207436E-1,3.659924811E0
3.720031738E0,8.146283627E-1,-3.319633007E0,3.799753189E-1,3.439180704E0
3.725006103E0,7.286249399E-1,-3.042738438E0,4.098911285E-1,3.155497146E0
3.729949951E0,6.779623032E-1,-2.851067066E0,2.605061531E-1,2.942121642E0
3.734924316E0,5.356754065E-1,-2.647843361E0,1.265449524E-1,2.704447491E0
3.739898681E0,4.351180792E-1,-2.533330441E0,7.750082016E-2,2.571594299E0
3.744873047E0,3.561130762E-1,-2.575765133E0,1.926136017E-2,2.600337198E0
3.749816894E0,3.159713745E-1,-2.511251926E0,5.905008316E-2,2.531740717E0
3.754791259E0,2.119446993E-1,-2.486109257E0,1.955642700E-1,2.502779490E0
3.759765625E0,1.119968891E-1,-2.413153648E0,2.882113457E-1,2.432882984E0
3.764739990E0,8.055353165E-2,-2.363332272E0,3.466348648E-1,2.389975738E0
3.769714355E0,1.422646046E-1,-2.451838017E0,4.247155190E-1,2.492414923E0
3.774658203E0,1.380889416E-1,-2.428560734E0,4.627799988E-1,2.476114117E0
3.779632568E0,2.450740337E-1,-2.441793919E0,4.576611519E-1,2.496371878E0
3.784606933E0,3.012888432E-1,-2.463411808E0,4.813690186E-1,2.528020735E0
3.789550781E0,3.437289000E-1,-2.429979324E0,3.779630661E-1,2.483103935E0
3.794525146E0,3.844721317E-1,-2.410370350E0,3.013014793E-1,2.459367119E0
3.799499511E0,5.543825030E-1,-2.419047832E0,2.064962387E-1,2.490335936E0
3.804473877E0,7.214350700E-1,-2.427578926E0,9.822273254E-2,2.534414273E0
3.809448242E0,8.200224042E-1,-2.405734539E0,-3.792524338E-2,2.541935038E0
3.814392089E0,9.672064781E-1,-2.380072594E0,-1.303119659E-1,2.572394824E0
3.819366455E0,1.115118146E0,-2.312314987E0,-2.285633087E-1,2.577310665E0
3.824340820E0,1.248956442E0,-2.306159496E0,-2.580986023E-1,2.635313777E0
3.829284668E0,1.297862530E0,-2.305989742E0,-2.525243759E-1,2.658158084E0
3.834259033E0,1.323620081E0,-2.253779888E0,-3.092870712E-1,2.631948403E0
3.839233398E0,1.266540766E0,-2.208325386E0,-4.015493393E-1,2.577221060E0
3.844207763E0,1.224863768E0,-2.255825043E0,-4.129185677E-1,2.599911463E0
3.849151611E0,1.232154131E0,-2.344600201E0,-4.402985573E-1,2.684998459E0
3.854125976E0,1.146432877E0,-2.423221111E0,-4.705977440E-1,2.721722089E0
3.859100341E0,1.113795757E0,-2.494159222E0,-4.932260513E-1,2.775723897E0
3.864074707E0,1.124117851E0,-2.587819576E0,-5.590434074E-1,2.876278956E0
3.869018554E0,1.070962429E0,-2.720459461E0,-5.629425049E-1,2.977375433E0
3.873992920E0,9.643698931E-1,-2.843602657E0,-5.552163124E-1,3.053579951E0
3.878967285E0,8.808778524E-1,-2.979187489E0,-5.340361595E-1,3.152252925E0
3.883941650E0,7.313017845E-1,-3.189225674E0,-4.574723244E-1,3.303822578E0
3.888885498E0,6.078749299E-1,-3.340489864E0,-3.773903847E-1,3.416256426E0
3.893859863E0,5.993971825E-1,-3.586575508E0,-4.059953690E-1,3.658911463E0
3.898834228E0,5.192627907E-1,-3.779764652E0,-3.913908005E-1,3.835288963E0
3.903808593E0,4.554819465E-1,-3.962260723E0,-3.070902824E-1,4.000159782E0
3.908752441E0,4.180915952E-1,-4.207817078E0,-2.371892929E-1,4.235184046E0
3.913726806E0,2.872612774E-1,-4.357812405E0,-2.299485207E-1,4.373319599E0
3.918701172E0,1.996020377E-1,-4.514989853E0,-1.805624962E-1,4.523005324E0
3.923675537E0,2.374117970E-1,-4.689335346E0,-2.078890800E-1,4.699941300E0
3.928619384E0,3.423488140E-1,-4.899004459E0,-3.204770088E-1,4.921397456E0
3.933593750E0,3.641642034E-1,-5.121233940E0,-2.856726646E-1,5.142106719E0
3.938568115E0,3.050670326E-1,-5.282767773E0,-2.363433838E-1,5.296844290E0
3.943542480E0,2.646977901E-1,-5.416576385E0,-3.328194618E-1,5.433243364E0
3.948486328E0,2.700479627E-1,-5.593965054E0,-4.652032852E-1,5.619767346E0
3.953460693E0,2.312226295E-1,-5.853843212E0,-5.076746941E-1,5.880363752E0
3.958435058E0,6.721866131E-2,-6.238412857E0,-5.178356171E-1,6.260228993E0
3.963409423E0,3.774559498E-2,-6.605204582E0,-5.257925987E-1,6.626206317E0
3.968353271E0,-1.244910955E-1,-6.421378136E0,-7.359519005E-1,6.464612935E0
3.973327636E0,-2.532958984E-1,-6.601835728E0,-1.129754543E0,6.702591970E0
3.978302002E0,-2.605246305E-1,-7.046935558E0,-1.211825371E0,7.155116671E0
3.983276367E0,-4.860006571E-1,-7.292007446E0,-1.469770432E0,7.454515032E0
3.988220214E0,-6.262044907E-1,-7.556735992E0,-1.586015701E0,7.746730712E0
3.993194580E0,-7.432068586E-1,-7.801855564E0,-1.512930870E0,7.981871115E0
3.998168945E0,-8.501547575E-1,-7.929974079E0,-1.502544880E0,8.115718891E0
4.003143310E0,-7.840416431E-1,-7.990231991E0,-1.497717857E0,8.167110098E0
4.008087158E0,-5.673040152E-1,-8.148126602E0,-1.634914398E0,8.329870711E0
4.013061523E0,-4.050956964E-1,-8.373744965E0,-1.541669369E0,8.524110024E0
4.018035888E0,-3.992145061E-1,-8.547076225E0,-1.332138538E0,8.659473270E0
4.023010254E0,-4.360396862E-1,-8.709796906E0,-1.294197083E0,8.816214541E0
4.027954101E0,-5.490193367E-1,-8.975886345E0,-1.428260803E0,9.105376809E0
4.032928466E0,-7.893874645E-1,-9.051687241E0,-1.514368057E0,9.211378023E0
4.037902832E0,-1.144639730E0,-9.322197914E0,-1.537372112E0,9.517199539E0
4.042877197E0,-1.374820948E0,-9.756096840E0,-1.535510063E0,9.971426645E0
4.047821045E0,-1.638527155E0,-1.014246082E1,-1.494277000E0,1.038205888E1
4.052795410E0,-1.955993414E0,-1.039108086E1,-1.314565659E0,1.065497792E1
4.057769775E0,-2.267374277E0,-1.058137512E1,-1.244902134E0,1.089294574E1
4.062744140E0,-2.434088707E0,-1.072367191E1,-1.024643898E0,1.104408540E1
4.067687988E0,-2.553485394E0,-1.088700962E1,-9.382314682E-1,1.122174427E1
4.072662353E0,-2.534973383E0,-1.112465858E1,-9.109978676E-1,1.144613628E1
4.077636718E0,-2.383197784E0,-1.128320408E1,-9.425749779E-1,1.157059953E1
4.082611084E0,-2.178460360E0,-1.148310089E1,-9.966645241E-1,1.173032974E1
4.087554931E0,-2.123901129E0,-1.157074261E1,-1.155419350E0,1.182066133E1
4.092529297E0,-2.047475100E0,-1.175155067E1,-1.436773777E0,1.201479989E1
4.097503662E0,-2.052811623E0,-1.194104862E1,-1.667617798E0,1.223043854E1
4.102478027E0,-2.116732359E0,-1.216552734E1,-1.928063393E0,1.249792142E1
4.107421875E0,-2.307128429E0,-1.238545895E1,-2.275111675E0,1.280228761E1
4.112396240E0,-2.556710243E0,-1.259598637E1,-2.544246674E0,1.310224526E1
4.117370605E0,-2.723026752E0,-1.286253357E1,-2.736137867E0,1.342929987E1
4.122344970E0,-2.861004353E0,-1.314185143E1,-3.061607838E0,1.379373218E1
4.127288818E0,-2.980156422E0,-1.345143604E1,-3.366461754E0,1.418293089E1
4.132263183E0,-3.068184376E0,-1.384607124E1,-3.615721703E0,1.463560343E1
4.137237548E0,-3.199977398E0,-1.422617912E1,-3.701334476E0,1.504406543E1
4.142211914E0,-3.235664845E0,-1.465646362E1,-3.681688309E0,1.545432890E1
4.147155761E0,-3.151672363E0,-1.504164696E1,-3.665373325E0,1.579933997E1
4.152130127E0,-3.012256622E0,-1.546138287E1,-3.719772816E0,1.618532545E1
4.157104492E0,-2.905728340E0,-1.602919769E1,-3.598959446E0,1.668325343E1
4.162078857E0,-2.993117332E0,-1.636921692E1,-3.328508854E0,1.697023822E1
4.167022705E0,-3.044660091E0,-1.680191422E1,-3.086314678E0,1.735222218E1
4.171997070E0,-2.982430458E0,-1.761792564E1,-2.770648479E0,1.808210962E1
4.176971435E0,-3.057719231E0,-1.830361366E1,-2.439168453E0,1.871687642E1
4.181945800E0,-3.277898788E0,-1.878989029E1,-2.169322968E0,1.919662886E1
4.186889648E0,-3.597651958E0,-1.934033203E1,-2.016102791E0,1.977514129E1
4.191864013E0,-4.100165844E0,-1.989433098E1,-2.127898216E0,2.042360683E1
4.196838379E0,-4.485270500E0,-2.054577637E1,-2.202994347E0,2.114473367E1
4.201812744E0,-4.770151138E0,-2.037655449E1,-2.206054688E0,2.104340733E1
4.206756591E0,-4.946223259E0,-2.060354233E1,-2.135851860E0,2.129631292E1
4.211730957E0,-5.092930317E0,-2.127937889E1,-2.206726551E0,2.199135165E1
4.216705322E0,-5.384887218E0,-2.204975891E1,-2.161002636E0,2.280041251E1
4.221679687E0,-5.548125744E0,-2.290592384E1,-1.904813290E0,2.364511282E1
4.226623535E0,-5.474912643E0,-2.330623245E1,-1.258423090E0,2.397370994E1
4.231597900E0,-5.441468239E0,-2.319181252E1,-8.227994442E-1,2.383582898E1
4.236572265E0,-5.685157776E0,-2.306434822E1,-2.679617405E-1,2.375619880E1
4.241546631E0,-6.278032303E0,-2.295337677E1,2.814042568E-1,2.379811722E1
4.246490478E0,-6.913623810E0,-2.282863808E1,9.297642708E-1,2.387068018E1
4.251464843E0,-7.481307983E0,-2.269940567E1,1.615836859E0,2.395503946E1
4.256439209E0,-8.160363197E0,-2.256689072E1,2.355566263E0,2.411233660E1
4.261413574E0,-8.882781029E0,-2.243198395E1,2.915281057E0,2.430219262E1
4.266357422E0,-9.926484108E0,-2.229632759E1,3.344351530E0,2.463424442E1
4.271331787E0,-1.103868389E1,-2.216097260E1,4.036580086E0,2.508496018E1
4.276306152E0,-1.131533527E1,-2.202866554E1,4.953257084E0,2.525536921E1
4.281280517E0,-1.124440002E1,-2.190070534E1,5.849523544E0,2.530403825E1
4.286224365E0,-1.117491817E1,-2.177950096E1,6.668418407E0,2.537111078E1
4.291198730E0,-1.113298512E1,-2.166543961E1,7.641631126E0,2.552898661E1
4.296173095E0,-1.109118271E1,-2.155963516E1,8.587753296E0,2.572123070E1
4.301147461E0,-1.105716515E1,-2.146119499E1,9.472553253E0,2.593401351E1
4.306091308E0,-1.102961254E1,-2.137096596E1,9.899678230E0,2.600719454E1
4.311065673E0,-1.100679588E1,-2.128783989E1,9.901258469E0,2.592983999E1
4.316040039E0,-1.078435707E1,-2.121099091E1,9.714709282E0,2.570183007E1
4.321014404E0,-9.889204025E0,-2.113900948E1,9.338072777E0,2.513669988E1
4.325958252E0,-8.976978302E0,-2.107095146E1,9.031151772E0,2.461976517E1
4.330932617E0,-8.345264435E0,-2.100445747E1,8.710213661E0,2.422185984E1
4.335906982E0,-7.913781166E0,-2.093839645E1,8.355352402E0,2.389259911E1
4.340881347E0,-7.701265335E0,-2.085663414E1,8.145176888E0,2.367810343E1
4.345825195E0,-7.469588280E0,-2.045470047E1,7.908453465E0,2.316750217E1
4.350799560E0,-7.211137772E0,-1.987292671E1,7.545649052E0,2.244706091E1
4.355773925E0,-6.920194626E0,-1.941116142E1,7.049622059E0,2.178025373E1
4.360717773E0,-6.493614197E0,-1.902169228E1,6.613044739E0,2.115949345E1
4.365692138E0,-6.005474091E0,-1.861778259E1,6.235617161E0,2.053218130E1
4.370666504E0,-5.410697937E0,-1.813907051E1,5.843947887E0,1.981043306E1
4.375640869E0,-4.762967110E0,-1.776871872E1,5.426022530E0,1.917954486E1
4.380615234E0,-4.284901619E0,-1.745501137E1,4.985420704E0,1.865186916E1
4.385559082E0,-4.220185280E0,-1.728092575E1,4.632160664E0,1.838198224E1
4.390533447E0,-4.540587425E0,-1.715896225E1,4.520174026E0,1.831608290E1
4.395507812E0,-4.946850777E0,-1.693114662E1,4.628193855E0,1.823609709E1
4.400482177E0,-5.221399307E0,-1.677090645E1,4.913739204E0,1.823927484E1
4.405426025E0,-5.417313576E0,-1.667462349E1,5.339635849E0,1.832763121E1
4.410400390E0,-5.600111008E0,-1.657780838E1,5.794093609E0,1.843248477E1
4.415374756E0,-5.800773621E0,-1.647323608E1,6.334289551E0,1.857793599E1
4.420349121E0,-5.842839241E0,-1.625555611E1,7.036222935E0,1.865181782E1
4.425292968E0,-5.782751083E0,-1.588008308E1,7.689400673E0,1.856728660E1
4.430267334E0,-5.545880318E0,-1.542149353E1,8.252307892E0,1.834883748E1
4.435241699E0,-5.258223534E0,-1.499332905E1,8.697389603E0,1.811334913E1
4.440216064E0,-4.909731865E0,-1.461740589E1,8.926247597E0,1.781718042E1
4.445159912E0,-4.449195862E0,-1.426520729E1,8.927932739E0,1.740687984E1
4.450134277E0,-3.936967850E0,-1.392316055E1,8.872320175E0,1.697268927E1
4.455108642E0,-3.350227356E0,-1.348941708E1,8.720932961E0,1.640862786E1
4.460083007E0,-2.640662193E0,-1.311146832E1,8.475241661E0,1.583393253E1
4.465026855E0,-2.067209244E0,-1.267982101E1,8.216495514E0,1.524998405E1
4.470001220E0,-1.406912804E0,-1.230150986E1,7.804826736E0,1.463632019E1
4.474975586E0,-8.296499252E-1,-1.208879089E1,7.523416519E0,1.426285316E1
4.479949951E0,-4.761953354E-1,-1.177974892E1,7.298234940E0,1.386555011E1
4.484924316E0,-1.248226166E-1,-1.142612076E1,7.069278717E0,1.343675995E1
4.489868164E0,7.988929749E-3,-1.114316368E1,6.916306496E0,1.311508506E1
4.494842529E0,1.553716660E-1,-1.089632225E1,6.867664814E0,1.288094713E1
4.499816894E0,4.816484451E-1,-1.069282055E1,6.782729149E0,1.267177222E1
4.504791259E0,8.002338409E-1,-1.037015724E1,6.714094162E0,1.237980597E1
4.509735107E0,1.195886612E0,-1.007056808E1,6.643573761E0,1.212367760E1
4.514709472E0,1.565371513E0,-9.676324844E0,6.546751022E0,1.178734913E1
4.519683838E0,1.947351456E0,-9.390668869E0,6.541172504E0,1.160878018E1
4.524627685E0,2.280203819E0,-9.117013931E0,6.456612587E0,1.140206642E1
4.529602050E0,2.622522354E0,-8.755315781E0,6.329335213E0,1.111726865E1
4.534576416E0,2.947842598E0,-8.523796082E0,6.247527122E0,1.097162115E1
4.539550781E0,3.228250504E0,-8.189425468E0,6.131841183E0,1.072789668E1
4.544525146E0,3.462952614E0,-7.902501106E0,5.995790482E0,1.050671538E1
4.549468994E0,3.685866356E0,-7.657391548E0,6.006691456E0,1.040680539E1
4.554443359E0,3.854266167E0,-7.477502823E0,6.112138748E0,1.039839681E1
4.559417724E0,4.066194534E0,-7.280536652E0,6.192921638E0,1.038712811E1
4.564361572E0,4.301136017E0,-7.040755272E0,6.272747040E0,1.036433120E1
4.569335937E0,4.558410645E0,-6.826975822E0,6.387303352E0,1.040117064E1
4.574310302E0,4.845790863E0,-6.578820229E0,6.401712418E0,1.038000417E1
4.579254150E0,5.126276016E0,-6.360480309E0,6.403081894E0,1.037949292E1
4.584228515E0,5.465306282E0,-6.128855228E0,6.309033394E0,1.035549813E1
4.589202881E0,5.667534828E0,-5.869404793E0,6.108400822E0,1.019232183E1
4.594177246E0,5.703868866E0,-5.576926231E0,5.904950142E0,9.924951507E0
4.599121093E0,5.672574997E0,-5.299864292E0,5.686311245E0,9.622931164E0
4.604095459E0,5.658020496E0,-5.180798531E0,5.546257019E0,9.466511304E0
4.609069824E0,5.582798004E0,-5.009421825E0,5.498949528E0,9.300558397E0
4.614044189E0,5.437058449E0,-4.860719204E0,5.448951244E0,9.103804997E0
4.618988037E0,5.253118038E0,-4.735302448E0,5.354128838E0,8.870458501E0
4.623962402E0,5.224071503E0,-4.720767021E0,5.289940834E0,8.806817720E0
4.628936767E0,5.160984039E0,-4.589879990E0,5.205006599E0,8.648401487E0
4.633911132E0,5.050567627E0,-4.357172012E0,5.229120255E0,8.475663982E0
4.638854980E0,5.001178741E0,-4.174705982E0,5.258334160E0,8.371979275E0
4.643829345E0,4.884540081E0,-4.160581112E0,5.279644966E0,8.309260976E0
4.648803711E0,4.718544483E0,-4.163609982E0,5.373777866E0,8.275131339E0
4.653778076E0,4.599726677E0,-4.089972496E0,5.488829136E0,8.246975555E0
4.658721923E0,4.542373180E0,-3.938446999E0,5.627799511E0,8.235086290E0
4.663696289E0,4.505609989E0,-3.744922638E0,5.739381790E0,8.201552918E0
4.668670654E0,4.465009689E0,-3.707187891E0,5.763200283E0,8.178877129E0
4.673645019E0,4.458394527E0,-3.670205593E0,5.670525074E0,8.093364286E0
4.678588867E0,4.444094181E0,-3.677235126E0,5.551129818E0,8.005440245E0
4.683563232E0,4.516157627E0,-3.650129318E0,5.410271168E0,7.936633913E0
4.688537597E0,4.668435097E0,-3.543726206E0,5.363842487E0,7.945003959E0
4.693511963E0,4.829524994E0,-3.346401215E0,5.244800568E0,7.875953641E0
4.698455810E0,4.863609314E0,-3.197916508E0,5.136133671E0,7.762811001E0
4.703430175E0,4.897079945E0,-3.206418991E0,5.001460075E0,7.699163436E0
4.708404541E0,4.922049999E0,-3.278777122E0,4.786231041E0,7.608216821E0
4.713378906E0,4.903928280E0,-3.219314098E0,4.660991669E0,7.492485514E0
4.718322754E0,4.848627090E0,-3.143811464E0,4.630677700E0,7.405127355E0
4.723297119E0,4.754193783E0,-3.122981548E0,4.642019272E0,7.341914954E0
4.728271484E0,4.626143932E0,-3.144252062E0,4.706501961E0,7.310177113E0
4.733245849E0,4.578408718E0,-3.129483223E0,4.758760452E0,7.307618810E0
4.738189697E0,4.487945557E0,-3.111372948E0,4.835550308E0,7.294165046E0
4.743164062E0,4.438609123E0,-3.104032040E0,4.932991982E0,7.326027282E0
4.748138427E0,4.378451347E0,-3.126009941E0,5.118874073E0,7.426011455E0
4.753112793E0,4.368275642E0,-3.152886629E0,5.337725163E0,7.583787714E0
4.758056640E0,4.444932938E0,-3.140255928E0,5.601603508E0,7.810031880E0
4.763031006E0,4.558368683E0,-3.041447878E0,5.818935871E0,7.993068554E0
4.768005371E0,4.712993622E0,-2.896617889E0,5.976603031E0,8.143861975E0
4.772979736E0,4.790086746E0,-2.827327013E0,5.972879410E0,8.161739859E0
4.777923584E0,4.863893509E0,-2.795633793E0,5.868514061E0,8.118650482E0
4.782897949E0,4.897152901E0,-2.705048561E0,5.855129719E0,8.098267609E0
4.787872314E0,4.829043388E0,-2.693235397E0,5.858606339E0,8.055832991E0
4.792846679E0,4.764218330E0,-2.758988857E0,5.842840195E0,8.027987130E0
4.797790527E0,4.734409809E0,-2.815299749E0,5.861625195E0,8.043581220E0
4.802764892E0,4.643759251E0,-2.788884163E0,5.994247913E0,8.079194446E0
4.807739257E0,4.599207878E0,-2.789464712E0,6.087217331E0,8.123302365E0
4.812713623E0,4.548543453E0,-2.946969032E0,6.164060116E0,8.207893221E0
4.817657470E0,4.510581970E0,-3.046486616E0,6.145373344E0,8.209265738E0
4.822631836E0,4.434235573E0,-3.135074377E0,6.104428768E0,8.170384755E0
4.827606201E0,4.313716888E0,-3.237420797E0,6.012245178E0,8.076889184E0
4.832580566E0,4.225644112E0,-3.355582714E0,5.906788349E0,8.000384498E0
4.837554931E0,4.204463005E0,-3.516218185E0,5.830964565E0,8.002590034E0
4.842498779E0,4.176517487E0,-3.678447485E0,5.804440498E0,8.041505065E0
4.847473144E0,4.096173286E0,-3.868925333E0,5.722750664E0,8.031008279E0
4.852447509E0,4.148205757E0,-3.950121641E0,5.749651909E0,8.116006965E0
4.857391357E0,4.252761841E0,-3.903595209E0,5.855268478E0,8.222421042E0
4.862365722E0,4.376901627E0,-3.896814108E0,6.070357323E0,8.437515396E0
4.867340088E0,4.575149536E0,-3.802714586E0,6.428179741E0,8.758660074E0
4.872314453E0,4.667717934E0,-3.661323786E0,6.837040901E0,9.051961713E0
4.877258300E0,4.674722672E0,-3.446654320E0,7.174114704E0,9.230405183E0
4.882232666E0,4.518407822E0,-3.300561666E0,7.360959053E0,9.246265989E0
4.887207031E0,4.272144318E0,-3.341279984E0,7.415309429E0,9.187066068E0
4.892181396E0,4.024902344E0,-3.528599024E0,7.451973438E0,9.175116243E0
4.897125244E0,3.744549751E0,-3.907987356E0,7.257991791E0,9.053864526E0
4.902099609E0,3.439011574E0,-4.222379684E0,7.022440910E0,8.886504777E0
4.907073974E0,2.921567917E0,-4.420318604E0,6.847397804E0,8.658038597E0
4.912048339E0,2.070766926E0,-4.712386131E0,6.772849083E0,8.506829222E0
4.916992187E0,1.139193535E0,-5.219522476E0,6.703355312E0,8.571822982E0
4.921966552E0,3.742499352E-1,-5.778530121E0,6.809232235E0,8.938518725E0
4.926940918E0,-1.493568420E-1,-6.144164562E0,6.964055538E0,9.288225620E0
4.931915283E0,8.701848984E-2,-7.252030373E0,7.755028725E0,1.061790880E1
4.936859131E0,7.589936256E-1,-7.650056839E0,8.536552429E0,1.148791401E1
4.941833496E0,1.855943680E0,-7.660993576E0,9.367792130E0,1.224299305E1
4.946807861E0,2.788053989E0,-7.840042114E0,1.014337540E1,1.311973970E1
4.951782226E0,3.693093300E0,-8.265035629E0,1.091250896E1,1.417859669E1
4.956726074E0,4.486131191E0,-8.696722031E0,1.162727356E1,1.519709964E1
4.961700439E0,5.095694065E0,-9.257246017E0,1.228168297E1,1.620192700E1
4.966674804E0,5.486860275E0,-9.685165405E0,1.280627823E1,1.696787632E1
4.971649170E0,5.133440971E0,-1.109327126E1,1.335993481E1,1.810802975E1
4.976623535E0,5.108948231E0,-1.108364677E1,1.330812931E1,1.805698988E1
4.981597900E0,4.316308498E0,-1.212760830E1,1.344642448E1,1.861493308E1
4.986541748E0,3.397642612E0,-1.318291473E1,1.376851654E1,1.936247050E1
4.991516113E0,2.756263733E0,-1.448801899E1,1.422654915E1,2.049132462E1
4.996459961E0,2.384141922E0,-1.572056007E1,1.450290680E1,2.152102338E1
5.001434326E0,2.098588943E0,-1.673428154E1,1.447562790E1,2.222575212E1
5.006408691E0,1.957742214E0,-1.779774094E1,1.442119789E1,2.299050425E1
5.011383056E0,1.934933662E0,-1.806736183E1,1.436797619E1,2.316489308E1
5.016326904E0,1.944969654E0,-1.808272171E1,1.431090450E1,2.314237929E1
5.021301269E0,1.678586483E0,-1.810408592E1,1.425404930E1,2.310310588E1
5.026275634E0,1.216801643E0,-1.814431381E1,1.420325470E1,2.307442684E1
5.031250000E0,6.902742386E-1,-1.818436813E1,1.416106606E1,2.305826348E1
5.036193847E0,-5.092144012E-2,-1.823233986E1,1.412840748E1,2.306583421E1
5.041168213E0,-9.490647316E-1,-1.828989792E1,1.410557365E1,2.311684014E1
5.046142578E0,-1.923816681E0,-1.835725975E1,1.409294701E1,2.322285967E1
5.051116943E0,-3.056126118E0,-1.843499756E1,1.408936501E1,2.340297520E1
5.056060791E0,-4.419647217E0,-1.852320862E1,1.409215450E1,2.369032202E1
5.061035156E0,-5.867296219E0,-1.862467384E1,1.409951687E1,2.408526555E1
5.066009521E0,-7.470352650E0,-1.873986816E1,1.411002636E1,2.461872603E1
5.070983886E0,-9.155616760E0,-1.887003136E1,1.412260914E1,2.528540074E1
5.075927734E0,-1.099820709E1,-1.901594162E1,1.413652802E1,2.612294048E1
5.080902099E0,-1.176329994E1,-1.918115997E1,1.415348434E1,2.658219785E1
5.085876464E0,-1.168539619E1,-1.936590195E1,1.417564297E1,2.669336052E1
5.090850830E0,-1.158740807E1,-1.957205200E1,1.420216846E1,2.681482490E1
5.095794677E0,-1.153180981E1,-1.980024719E1,1.423015594E1,2.697275968E1
5.100769043E0,-1.146024895E1,-2.005548096E1,1.426049232E1,2.714629374E1
5.105743408E0,-1.139241695E1,-2.033709908E1,1.429779625E1,2.734614672E1
5.110717773E0,-1.132743549E1,-2.064466476E1,1.434871101E1,2.757532386E1
5.115661621E0,-1.126541805E1,-2.097622681E1,1.441873932E1,2.783544105E1
5.120635986E0,-1.120627213E1,-2.133522606E1,1.451481533E1,2.813276151E1
5.125610351E0,-1.115016747E1,-2.171733093E1,1.366101933E1,2.797484846E1
5.130584716E0,-1.109685802E1,-2.211956596E1,1.106805801E1,2.710935936E1
5.135528564E0,-1.104890251E1,-2.253587723E1,8.423041344E0,2.647435806E1
5.140502929E0,-1.101104736E1,-2.296824646E1,5.934640884E0,2.615346004E1
5.145477295E0,-1.098935604E1,-2.340951920E1,3.487744808E0,2.609474849E1
5.150451660E0,-1.098864269E1,-2.385469246E1,1.315026999E0,2.629688036E1
5.155395507E0,-1.101375294E1,-2.429550171E1,-7.302768230E-1,2.668534169E1
5.160369873E0,-1.107130241E1,-2.473220062E1,-2.821163893E0,2.724361302E1
5.165344238E0,-1.116750908E1,-2.515678406E1,-5.192825794E0,2.800968552E1
5.170318603E0,-1.130647087E1,-2.556408882E1,-7.623270988E0,2.897366358E1
5.175262451E0,-1.148647213E1,-2.594676781E1,-9.827410698E0,3.002918252E1
5.180236816E0,-1.170717907E1,-2.630566788E1,-1.196105099E1,3.117872584E1
5.185211181E0,-1.196345901E1,-2.663418007E1,-1.364519501E1,3.222879530E1
5.190185547E0,-1.225023460E1,-2.692896652E1,-1.500741577E1,3.317318215E1
5.195129394E0,-1.256010818E1,-2.718607330E1,-1.608924675E1,3.399562855E1
5.200103759E0,-1.248331833E1,-2.740793419E1,-1.696928787E1,3.456855253E1
5.205078125E0,-9.853216171E0,-2.759212112E1,-1.761434746E1,3.418590723E1
5.210052490E0,-6.567077637E0,-2.773841286E1,-1.723410606E1,3.331006557E1
5.214996338E0,-3.854946136E0,-2.784695244E1,-1.679136086E1,3.274542975E1
5.219970703E0,-1.457568645E0,-2.792117882E1,-1.638923645E1,3.240869952E1
5.224945068E0,4.168233871E-1,-2.796254921E1,-1.599788857E1,3.221816783E1
5.229919433E0,2.123750210E0,-2.797355270E1,-1.562082100E1,3.210981181E1
5.234863281E0,3.572542191E0,-2.795659256E1,-1.526308441E1,3.205145661E1
5.239837646E0,4.961117744E0,-2.791577148E1,-1.492388535E1,3.204099469E1
5.244812011E0,6.838162422E0,-2.785767746E1,-1.461286545E1,3.219233597E1
5.249786377E0,7.802639484E0,-2.779069138E1,-1.434275246E1,3.223225493E1
5.254730224E0,7.770863533E0,-2.771610069E1,-1.397777748E1,3.199916907E1
5.259704589E0,7.783035278E0,-2.763239098E1,-1.239213371E1,3.126802915E1
5.264678955E0,7.554758072E0,-2.754058266E1,-1.153037930E1,3.079785235E1
5.269653320E0,7.590489388E0,-2.744408417E1,-1.162333012E1,3.075540746E1
5.274597168E0,6.752096653E0,-2.734721184E1,-1.074028587E1,3.014655113E1
5.279571533E0,5.886271477E0,-2.708777618E1,-1.002952194E1,2.947858750E1
5.284545898E0,4.782525063E0,-2.573639107E1,-9.123164177E0,2.772122825E1
5.289520263E0,4.006588936E0,-2.445084381E1,-8.582658768E0,2.622133768E1
5.294464111E0,3.304465771E0,-2.307156944E1,-7.906160831E0,2.461146460E1
5.299438476E0,2.909607410E0,-2.186920357E1,-6.972786903E0,2.313758062E1
5.304412841E0,2.655317545E0,-2.087152290E1,-5.920098782E0,2.185677811E1
5.309387207E0,2.327643871E0,-1.979496193E1,-4.952739239E0,2.053747963E1
5.314361572E0,1.996404052E0,-1.878181076E1,-4.216391087E0,1.935251917E1
5.319305420E0,1.800719500E0,-1.784502792E1,-3.761626720E0,1.832586827E1
5.324279785E0,1.768058777E0,-1.693633461E1,-3.305086136E0,1.734615393E1
5.329254150E0,1.864811063E0,-1.605435944E1,-2.456058025E0,1.634784996E1
5.334197998E0,1.925697327E0,-1.531818581E1,-1.932615757E0,1.555924581E1
5.339172363E0,1.913973212E0,-1.441813183E1,-2.473953724E0,1.475351707E1
5.344146728E0,1.817619801E0,-1.349157143E1,-2.221623421E0,1.379354385E1
5.349121093E0,1.753028154E0,-1.278083611E1,-1.675883293E0,1.300889942E1
5.354064941E0,1.673682690E0,-1.214862633E1,-1.579559803E0,1.236468134E1
5.359039306E0,1.684508562E0,-1.149988174E1,-1.411972046E0,1.170805339E1
5.364013672E0,1.804749608E0,-1.088666058E1,-1.149233818E0,1.109491947E1
5.368988037E0,1.971816659E0,-1.020180511E1,-1.079969406E0,1.044658903E1
5.373931884E0,2.146730423E0,-9.515974045E0,-1.110967636E0,9.818170024E0
5.378906250E0,2.249057770E0,-8.738994598E0,-8.683366776E-1,9.065445164E0
5.383880615E0,2.240038872E0,-8.013426781E0,-6.215906143E-1,8.343809550E0
5.388854980E0,2.331134796E0,-7.751446724E0,-4.146490097E-1,8.105001515E0
5.393798828E0,2.082733631E0,-6.968702316E0,-2.902307510E-1,7.279067608E0
5.398773193E0,1.869764209E0,-6.518137932E0,-4.453592300E-1,6.795622498E0
5.403747558E0,1.756611705E0,-6.228736877E0,-4.859771729E-1,6.489916916E0
5.408721923E0,1.439444542E0,-5.706261635E0,-2.699241638E-1,5.891203739E0
5.413696289E0,1.357941270E0,-5.477041245E0,-9.716081619E-2,5.643706717E0
5.418640136E0,1.075138927E0,-5.079311371E0,-1.221704483E-1,5.193289259E0
5.423614502E0,7.004736662E-1,-4.704648972E0,-3.339686394E-1,4.768219831E0
5.428588867E0,2.965688705E-1,-4.465731621E0,-5.950684547E-1,4.514954980E0
5.433532714E0,-2.675978094E-2,-4.236728668E0,-6.564307213E-1,4.287363664E0
5.438507080E0,-1.481707543E-1,-4.051402569E0,-2.909598351E-1,4.064538716E0
5.443481445E0,-1.898218989E-1,-3.757034302E0,1.086435318E-1,3.763395078E0
5.448455810E0,-2.897023261E-1,-3.454877377E0,-4.281892776E-1,3.493343840E0
5.453399658E0,-2.236453593E-1,-3.264384747E0,-4.327940941E-1,3.300535676E0
5.458374023E0,3.731625527E-2,-3.274422646E0,-3.086833954E-1,3.289152110E0
5.463348388E0,6.622929871E-2,-3.112766743E0,-5.622367859E-1,3.163828901E0
5.468322754E0,9.516739100E-2,-2.777091980E0,-6.731829643E-1,2.859103356E0
5.473266601E0,2.595936060E-1,-2.554645061E0,-7.463788986E-1,2.674075857E0
5.478240966E0,1.910813302E-1,-2.187427044E0,-8.975453377E-1,2.372116519E0
5.483215332E0,1.084298939E-1,-2.041029453E0,-9.540019035E-1,2.255588150E0
5.488189697E0,9.791243821E-3,-1.955153942E0,-8.813648224E-1,2.144650731E0
5.493133545E0,-1.048738509E-2,-1.871352196E0,-6.945371628E-1,1.996108939E0
5.498107910E0,1.567869633E-2,-1.845003128E0,-4.156742096E-1,1.891313674E0
5.503082275E0,-2.897858620E-2,-1.842145443E0,-2.402062416E-1,1.857966262E0
5.508056640E0,-1.921374202E-1,-1.852967739E0,-1.063280106E-1,1.865934585E0
5.513000488E0,-4.020165503E-1,-1.889729977E0,2.617368698E-1,1.949667377E0
5.517974853E0,-5.004652739E-1,-1.970255375E0,6.190466881E-1,2.124991891E0
5.522949218E0,-5.829425454E-1,-2.029316902E0,5.697860718E-1,2.186916841E0
5.527923584E0,-6.370199919E-1,-2.083099842E0,7.326073647E-1,2.298219522E0
5.532867431E0,-7.205438018E-1,-2.064794064E0,8.392939568E-1,2.342428706E0
5.537841797E0,-7.856386900E-1,-1.975581646E0,8.816862106E-1,2.301634542E0
5.542816162E0,-8.091057539E-1,-1.940838814E0,9.259653091E-1,2.297589862E0
5.547790527E0,-8.469460011E-1,-2.003819942E0,9.246368408E-1,2.363803117E0
5.552734375E0,-8.443608284E-1,-2.034109116E0,8.604884148E-1,2.364526467E0
5.557708740E0,-7.926771045E-1,-1.989297390E0,7.072930336E-1,2.255195010E0
5.562683105E0,-5.934548974E-1,-1.981224537E0,4.221739769E-1,2.110845861E0
5.567657470E0,-5.119242072E-1,-1.971486092E0,3.371524811E-1,2.064581216E0
5.572601318E0,-3.805533648E-1,-1.908071995E0,2.959523201E-1,1.968031345E0
5.577575683E0,-1.561832428E-1,-1.843055248E0,1.741180420E-1,1.857838245E0
5.582550048E0,9.272223711E-2,-1.859218121E0,7.292270660E-3,1.861543072E0
5.587524414E0,2.765971422E-1,-1.881945610E0,-2.328052521E-1,1.916356841E0
5.592468261E0,3.845476508E-1,-1.897898674E0,-4.328098297E-1,1.984243085E0
5.597442627E0,3.900401592E-1,-1.844405174E0,-6.436524391E-1,1.992046745E0
5.602416992E0,2.850636840E-1,-1.878350258E0,-8.109726906E-1,2.065705134E0
5.607391357E0,1.912770867E-1,-1.867609978E0,-9.641270638E-1,2.110472684E0
5.612365722E0,9.500628710E-2,-1.851787090E0,-1.147410870E0,2.180525929E0
5.617309570E0,7.263529301E-2,-1.981688976E0,-1.224575043E0,2.330654655E0
5.622283935E0,1.976132393E-2,-2.083113670E0,-1.298163414E0,2.454583737E0
5.627258300E0,-1.247839928E-1,-2.178349495E0,-1.407917500E0,2.596730493E0
5.632202148E0,-2.874441147E-1,-2.250892639E0,-1.475403309E0,2.706650461E0
5.637176513E0,-4.280910492E-1,-2.320029736E0,-1.601509571E0,2.851426455E0
5.642150879E0,-5.457419157E-1,-2.358390808E0,-1.722355366E0,2.970917274E0
5.647125244E0,-6.271868944E-1,-2.418225765E0,-1.887591362E0,3.131162788E0
5.652099609E0,-6.294192076E-1,-2.546864510E0,-2.056354523E0,3.333358860E0
5.657043457E0,-6.056984663E-1,-2.654316425E0,-2.226207733E0,3.516854730E0
5.662017822E0,-4.842592478E-1,-2.743235111E0,-2.334429741E0,3.634474943E0
5.666992187E0,-3.157427311E-1,-2.956068516E0,-2.419402599E0,3.832954928E0
5.671936035E0,-3.272652626E-1,-2.992406368E0,-2.282944679E0,3.778019962E0
5.676910400E0,-2.181358337E-1,-3.036426544E0,-1.550959587E0,3.416569192E0
5.681884765E0,-2.128943205E-1,-3.112698555E0,-1.691800117E0,3.549141294E0
5.686859131E0,-2.114686966E-1,-3.141753197E0,-2.024507046E0,3.743522531E0
5.691802978E0,1.243817806E-2,-3.238903522E0,-1.640654564E0,3.630757240E0
5.696777343E0,9.016871452E-2,-3.341791153E0,-1.891975880E0,3.841259069E0
5.701751709E0,-4.247629642E-2,-3.400648594E0,-1.824284077E0,3.859304016E0
5.706726074E0,-1.447905302E-1,-3.539721489E0,-1.686495781E0,3.923628491E0
5.711669922E0,-7.523751259E-2,-3.694153309E0,-1.900423527E0,4.155001677E0
5.716644287E0,-4.842853546E-2,-3.852835178E0,-1.985594273E0,4.334659024E0
5.721618652E0,-1.355724335E-1,-3.927888393E0,-1.936240196E0,4.381291272E0
5.726593017E0,-1.601006985E-1,-3.999114037E0,-1.857565403E0,4.412379691E0
5.731536865E0,-1.575498581E-1,-4.072317123E0,-1.772766113E0,4.444242163E0
5.736511230E0,-1.803617477E-1,-4.248448372E0,-1.569459915E0,4.532664598E0
5.741485595E0,-2.232482433E-1,-4.347366333E0,-1.272694111E0,4.535326241E0
5.746459961E0,-2.767441273E-1,-4.408058167E0,-1.041483879E0,4.537868749E0
5.751403808E0,-3.903427124E-1,-4.358480930E0,-8.549270630E-1,4.458657167E0
5.756378173E0,-4.274303913E-1,-4.526815891E0,-6.689896584E-1,4.595901002E0
5.761352539E0,-6.945848465E-1,-4.596716404E0,-4.278130531E-1,4.668540866E0
5.766326904E0,-7.881245613E-1,-4.798025608E0,-3.534011841E-1,4.875149480E0
5.771270752E0,-9.662613869E-1,-4.951827049E0,-3.517689705E-1,5.057469091E0
5.776245117E0,-1.245561361E0,-5.016920090E0,-4.670639038E-1,5.190285058E0
5.781219482E0,-1.543955326E0,-5.114240646E0,-6.049404144E-1,5.376356419E0
5.786163330E0,-1.705341578E0,-5.265966892E0,-7.949824333E-1,5.592011648E0
5.791137695E0,-1.789161682E0,-5.496877670E0,-8.821010590E-1,5.847637636E0
5.796112060E0,-1.954888821E0,-5.693877220E0,-9.344363213E-1,6.092208084E0
5.801086425E0,-2.148906946E0,-5.904196262E0,-1.016892433E0,6.364857012E0
5.806060791E0,-2.341263294E0,-5.940982819E0,-9.761176109E-1,6.459844909E0
5.811004638E0,-2.362712622E0,-5.978887558E0,-1.112446785E0,6.524342512E0
5.815979004E0,-2.628227949E0,-5.956952095E0,-1.285622120E0,6.636692297E0
5.820953369E0,-2.985522509E0,-5.966538906E0,-1.515573978E0,6.841775767E0
5.825897216E0,-3.123362780E0,-6.159919739E0,-1.900144577E0,7.163138673E0
5.830871582E0,-3.299474716E0,-6.276258469E0,-2.214964390E0,7.428594821E0
5.835845947E0,-3.598817825E0,-6.218981266E0,-2.418402672E0,7.581285459E0
5.840820312E0,-3.854096174E0,-6.327758312E0,-2.467720032E0,7.809239703E0
5.845794677E0,-4.321784973E0,-6.305635452E0,-2.321737766E0,7.989326008E0
5.850738525E0,-4.803606510E0,-6.278471947E0,-2.208880424E0,8.208105641E0
5.855712890E0,-5.244651794E0,-6.291853428E0,-1.859647751E0,8.399528663E0
5.860687256E0,-5.549479485E0,-6.384778500E0,-1.618231297E0,8.612827153E0
5.865631103E0,-5.713095665E0,-6.469897747E0,-1.306503773E0,8.729604289E0
5.870605468E0,-5.969599724E0,-6.543153286E0,-9.228763580E-1,8.905092732E0
5.875579834E0,-6.152229309E0,-6.606776714E0,-5.798468590E-1,9.046305677E0
5.880554199E0,-6.207851887E0,-6.744639874E0,-4.046368599E-1,9.175582982E0
5.885528564E0,-6.263379097E0,-6.930643082E0,-1.539230347E-1,9.342773867E0
5.890472412E0,-6.365971088E0,-6.955271244E0,-7.330226898E-2,9.429038085E0
5.895446777E0,-6.489915371E0,-7.044529915E0,-1.080775261E-1,9.578939607E0
5.900421142E0,-6.885270596E0,-7.108966351E0,-1.324372292E-1,9.897570074E0
5.905395507E0,-6.983084202E0,-7.336906433E0,-2.125325203E-1,1.013108242E1
5.910339355E0,-7.033160686E0,-7.507781029E0,-2.462930679E-1,1.029042203E1
5.915313720E0,-7.148968220E0,-7.558725357E0,-2.582702637E-1,1.040715039E1
5.920288086E0,-7.347540379E0,-7.595258713E0,-1.305699348E-1,1.056841299E1
5.925262451E0,-7.588062763E0,-7.622707367E0,7.096385956E-2,1.075590070E1
5.930206298E0,-7.815910339E0,-7.771708012E0,2.595796585E-1,1.102521117E1
5.935180664E0,-8.027039528E0,-8.005109787E0,4.077172279E-1,1.134378154E1
5.940155029E0,-8.193252563E0,-8.187004089E0,5.489006042E-1,1.159559034E1
5.945098877E0,-8.332540512E0,-8.387832642E0,7.208194733E-1,1.184510652E1
5.950073242E0,-8.424389839E0,-8.427730560E0,8.738269806E-1,1.194824507E1
5.955047607E0,-8.404447556E0,-8.411497116E0,1.053614616E0,1.193725790E1
5.960021972E0,-8.299695969E0,-8.525060654E0,1.156157970E0,1.195400826E1
5.964965820E0,-8.097564697E0,-8.741806030E0,1.241262913E0,1.198041987E1
5.969940185E0,-7.821281910E0,-8.928886414E0,1.395143509E0,1.195173162E1
5.974914550E0,-7.270336151E0,-9.060295105E0,1.768517971E0,1.175050599E1
5.979888916E0,-7.150993824E0,-9.054162979E0,1.625346661E0,1.165145191E1
5.984863281E0,-6.836933136E0,-9.136499405E0,1.587956429E0,1.152132291E1
5.989807129E0,-6.526647568E0,-9.373723984E0,1.476359367E0,1.151709455E1
5.994781494E0,-6.325704098E0,-9.568120956E0,1.292526722E0,1.154270749E1
5.999755859E0,-6.198284149E0,-9.707634926E0,1.145468235E0,1.157449782E1
6.004699707E0,-6.139273643E0,-9.656429291E0,1.085075855E0,1.149411576E1
6.009674072E0,-6.106656551E0,-9.947538376E0,9.915666580E-1,1.171443462E1
6.014648437E0,-5.935170174E0,-1.037503815E1,8.384568691E-1,1.198209796E1
6.019622802E0,-5.734744072E0,-1.056386948E1,8.735544682E-1,1.205179345E1
6.024566650E0,-5.475392818E0,-1.076873207E1,8.750331402E-1,1.211243988E1
6.029541015E0,-5.106822968E0,-1.116152763E1,1.003306627E0,1.231527361E1
6.034515381E0,-4.925067902E0,-1.133895874E1,1.027390718E0,1.240499137E1
6.039489746E0,-4.688334465E0,-1.162494469E1,1.298303127E0,1.260180186E1
6.044433593E0,-4.598505974E0,-1.183465576E1,1.608097076E0,1.279809792E1
6.049407959E0,-4.507503986E0,-1.226879501E1,1.855039120E0,1.320159435E1
6.054382324E0,-4.474194527E0,-1.262953472E1,2.039778948E0,1.355301672E1
6.059356689E0,-4.571386337E0,-1.290140343E1,2.253396749E0,1.387161059E1
6.064331054E0,-4.668429852E0,-1.329051971E1,2.494210243E0,1.430570642E1
6.069274902E0,-4.833554745E0,-1.354436874E1,2.661154747E0,1.462514686E1
6.074249267E0,-4.951436520E0,-1.391608810E1,2.778831005E0,1.502984143E1
6.079223632E0,-4.937595367E0,-1.441168976E1,3.015606403E0,1.552966618E1
6.084197998E0,-4.778130531E0,-1.463934135E1,3.323867321E0,1.575401348E1
6.089141845E0,-4.520438194E0,-1.506948853E1,3.713322639E0,1.616516659E1
6.094116211E0,-4.083289623E0,-1.521525764E1,4.039096355E0,1.626319829E1
6.099090576E0,-3.563908577E0,-1.538157082E1,4.374444008E0,1.638383122E1
6.104034423E0,-3.120013237E0,-1.536517239E1,4.676980019E0,1.636145309E1
6.109008789E0,-2.904132843E0,-1.535989761E1,5.043662071E0,1.642555842E1
6.113983154E0,-3.018741608E0,-1.538893604E1,5.070896149E0,1.648169109E1
6.118957519E0,-3.391541481E0,-1.540892220E1,5.013840675E0,1.655524192E1
6.123901367E0,-3.752147675E0,-1.547192574E1,5.112214088E0,1.672105951E1
6.128875732E0,-3.896246910E0,-1.540137863E1,5.339591026E0,1.675990561E1
6.133850097E0,-3.880335808E0,-1.523373318E1,5.532649517E0,1.666534858E1
6.138824463E0,-3.716608047E0,-1.501885414E1,5.610383987E0,1.645769010E1
6.143768310E0,-3.465274811E0,-1.479006004E1,5.523476601E0,1.616362581E1
6.148742675E0,-3.107963562E0,-1.464407921E1,5.230804443E0,1.585779961E1
6.153717041E0,-2.575017929E0,-1.457193947E1,4.820765972E0,1.556315912E1
6.158691406E0,-1.971256256E0,-1.452550125E1,4.402280331E0,1.530542747E1
6.163635254E0,-1.243974686E0,-1.457755566E1,3.928924322E0,1.514889594E1
6.168609619E0,-4.742002487E-1,-1.445129204E1,3.531180859E0,1.488401645E1
6.173583984E0,2.331514359E-1,-1.418300533E1,3.164979935E0,1.453372278E1
6.178558349E0,8.397979736E-1,-1.395245361E1,2.861970663E0,1.426769423E1
6.183502197E0,1.371451378E0,-1.395370293E1,2.421798229E0,1.422855618E1
6.188476562E0,1.745701790E0,-1.415796280E1,2.011592388E0,1.440631422E1
6.193450927E0,1.625103951E0,-1.442347145E1,1.859999061E0,1.463342366E1
6.198425293E0,1.269647598E0,-1.431785011E1,2.196487427E0,1.454088697E1
6.203369140E0,6.056852341E-1,-1.415544701E1,2.601583242E0,1.440526882E1
6.208343506E0,-9.428024292E-2,-1.433223438E1,2.865446329E0,1.461617644E1
6.213317871E0,-7.875518799E-1,-1.487191772E1,2.814883709E0,1.515644236E1
6.218292236E0,-1.346743584E0,-1.525349712E1,2.935602665E0,1.559168547E1
6.223236084E0,-1.668646812E0,-1.512774372E1,3.421370268E0,1.559932007E1
6.228210449E0,-1.919377327E0,-1.485497856E1,3.892661572E0,1.547602053E1
6.233184814E0,-2.181373596E0,-1.472241688E1,4.147898674E0,1.545034022E1
6.238159179E0,-2.354327202E0,-1.475568390E1,4.197591305E0,1.552072281E1
6.243103027E0,-2.327285767E0,-1.471339321E1,4.239931107E0,1.548797000E1
6.248077392E0,-2.302179337E0,-1.452513027E1,4.195203781E0,1.529310871E1
6.253051757E0,-2.297630310E0,-1.426762390E1,4.204564571E0,1.505066643E1
6.258026123E0,-2.268346786E0,-1.409339428E1,4.165294647E0,1.487006520E1
6.262969970E0,-2.126060486E0,-1.393891144E1,4.124636173E0,1.469101796E1
6.267944336E0,-2.074634552E0,-1.387828445E1,4.080435753E0,1.461372108E1
6.272918701E0,-2.074151039E0,-1.388281536E1,4.010482788E0,1.459858339E1
6.277893066E0,-2.100626945E0,-1.394531631E1,4.146393299E0,1.469955979E1
6.282836914E0,-2.100001335E0,-1.398889351E1,4.497798920E0,1.484349495E1
6.287811279E0,-2.141971588E0,-1.398032570E1,4.814388275E0,1.494041109E1
6.292785644E0,-2.280836105E0,-1.386503029E1,5.158136368E0,1.496822130E1
6.297760009E0,-2.522403717E0,-1.382490349E1,5.494683266E0,1.508913587E1
6.302703857E0,-2.736649513E0,-1.360978794E1,5.857239723E0,1.506727698E1
6.307678222E0,-2.828548431E0,-1.337260342E1,6.244275093E0,1.502724791E1
6.312652588E0,-2.919200897E0,-1.310487556E1,6.561007023E0,1.494343704E1
6.317626953E0,-2.974125862E0,-1.286428642E1,6.748185158E0,1.482812506E1
6.322570800E0,-2.923386574E0,-1.257441521E1,6.781112194E0,1.458237256E1
6.327545166E0,-2.644990921E0,-1.229129028E1,6.725389481E0,1.425842409E1
6.332519531E0,-2.406063080E0,-1.208971214E1,6.497546196E0,1.393443166E1
6.337493896E0,-2.354311943E0,-1.195318413E1,6.052999496E0,1.360368327E1
6.342437744E0,-2.485483170E0,-1.184105778E1,5.567169666E0,1.331847041E1
6.347412109E0,-2.597274780E0,-1.176935577E1,5.442125320E0,1.322423153E1
6.352386474E0,-2.638381004E0,-1.162512875E1,5.575974464E0,1.316040136E1
6.357360839E0,-2.692275047E0,-1.135790634E1,5.900150299E0,1.307907317E1
6.362304687E0,-2.721227646E0,-1.120494747E1,6.236239910E0,1.310902803E1
6.367279052E0,-2.705792427E0,-1.120192814E1,6.576788902E0,1.326870977E1
6.372253418E0,-2.482612610E0,-1.114400768E1,6.934057713E0,1.335789763E1
6.377227783E0,-2.180000305E0,-1.091727638E1,7.235677719E0,1.327758852E1
6.382171631E0,-1.799436569E0,-1.065773201E1,7.404456139E0,1.310157221E1
6.387145996E0,-1.338912964E0,-1.037560654E1,7.498129845E0,1.287120236E1
6.392120361E0,-9.067029953E-1,-1.014592934E1,7.546608925E0,1.267727489E1
6.397094726E0,-5.050802231E-1,-1.000774193E1,7.555832863E0,1.254992489E1
6.402038574E0,-1.741418839E-1,-9.713467598E0,7.591036797E0,1.232905584E1
6.407012939E0,1.610660553E-1,-9.325883865E0,7.678578377E0,1.208133345E1
6.411987304E0,3.749732971E-1,-9.063092232E0,7.755637646E0,1.193441080E1
6.416961670E0,3.957195282E-1,-8.888020515E0,7.837901592E0,1.185690533E1
6.421905517E0,3.030433655E-1,-8.726909637E0,7.929936409E0,1.179553638E1
6.426879882E0,2.752399445E-1,-8.555669785E0,8.163721085E0,1.182884544E1
6.431854248E0,2.450647354E-1,-8.306842804E0,8.638021469E0,1.198662208E1
6.436828613E0,1.928834915E-1,-8.004691124E0,9.194005013E0,1.219188305E1
6.441772461E0,1.589851379E-1,-7.656542778E0,9.638089180E0,1.231018630E1
6.446746826E0,4.339780807E-1,-7.324332714E0,9.981925964E0,1.238842333E1
6.451721191E0,4.281044006E-1,-6.908358574E0,1.035382652E1,1.245433319E1
6.456695556E0,5.550575256E-1,-6.509880066E0,1.062070084E1,1.246939909E1
6.461639404E0,6.349878311E-1,-6.108732700E0,1.079707718E1,1.242162229E1
6.466613769E0,7.384862900E-1,-5.798022270E0,1.082046795E1,1.229816860E1
6.471588134E0,7.917823792E-1,-5.613439560E0,1.092089844E1,1.230461888E1
6.476562500E0,7.658910751E-1,-5.333169460E0,1.119205475E1,1.242140794E1
6.481506347E0,7.179212570E-1,-5.019610405E0,1.152322769E1,1.258954630E1
6.486480713E0,5.428590775E-1,-4.790513515E0,1.176777840E1,1.271708788E1
6.491455078E0,3.190612793E-1,-4.532920837E0,1.196542358E1,1.279923955E1
6.496429443E0,1.313858032E-1,-4.215600967E0,1.226191330E1,1.296699933E1
6.501373291E0,-3.964519501E-2,-3.986686707E0,1.252769470E1,1.314680102E1
6.506347656E0,-1.022272110E-1,-3.701665640E0,1.271724129E1,1.324541448E1
6.511322021E0,-1.356315613E-1,-3.412159681E0,1.270894814E1,1.315973375E1
6.516296386E0,-2.123031616E-1,-3.290996790E0,1.256126595E1,1.298696018E1
6.521240234E0,-1.486225128E-1,-3.073606730E0,1.239488125E1,1.277114827E1
6.526214599E0,-6.828403473E-2,-2.760288239E0,1.213820362E1,1.244828667E1
6.531188964E0,7.106208801E-2,-2.643635273E0,1.173093128E1,1.202533185E1
6.536163330E0,2.706604004E-1,-2.594423294E0,1.127892303E1,1.157663138E1
6.541107177E0,4.260797501E-1,-2.397346258E0,1.095362949E1,1.122099871E1
6.546081543E0,5.404520035E-1,-2.147875309E0,1.070364380E1,1.093039099E1
6.551055908E0,5.736627579E-1,-1.981708288E0,1.053194141E1,1.073210355E1
6.556030273E0,5.332288742E-1,-1.859927654E0,1.033082199E1,1.051044942E1
6.561004638E0,5.479917526E-1,-1.856815100E0,1.011739540E1,1.030095855E1
6.565948486E0,5.284128189E-1,-1.824148178E0,9.948183060E0,1.012783703E1
6.570922851E0,5.730314255E-1,-1.768957138E0,9.834787369E0,1.000902677E1
6.575897216E0,6.945829391E-1,-1.693231344E0,9.679604530E0,9.851102563E0
6.580841064E0,8.339319229E-1,-1.628477573E0,9.447469711E0,9.622996706E0
6.585815429E0,9.965353012E-1,-1.580229044E0,9.209100723E0,9.396687851E0
6.590789795E0,1.149868965E0,-1.593234062E0,9.008934021E0,9.220709604E0
6.595764160E0,1.365655899E0,-1.609926224E0,8.724983215E0,8.976759470E0
6.600708007E0,1.635602951E0,-1.586431742E0,8.424989700E0,8.727680914E0
6.605682373E0,1.820870399E0,-1.572819710E0,8.074203491E0,8.425087113E0
6.610656738E0,1.925456047E0,-1.607944965E0,7.799768448E0,8.193244525E0
6.615631103E0,1.981236458E0,-1.758542776E0,7.621814728E0,8.069066262E0
6.620574951E0,2.074668884E0,-1.956225634E0,7.601806641E0,8.119022965E0
6.625549316E0,2.239650726E0,-2.076975584E0,7.652835846E0,8.239888315E0
6.630523681E0,2.383811951E0,-2.161947250E0,7.691338062E0,8.337461035E0
6.635498047E0,2.522044182E0,-2.314504623E0,7.739356041E0,8.462580601E0
6.640441894E0,2.696707726E0,-2.312537909E0,7.844628334E0,8.611518904E0
6.645416259E0,2.855397224E0,-2.371106625E0,7.834067822E0,8.668797989E0
6.650390625E0,3.002070427E0,-2.530681610E0,7.739941597E0,8.678909620E0
6.655364990E0,3.140590668E0,-2.732938290E0,7.546508789E0,8.618703867E0
6.660308838E0,3.280073166E0,-2.956522226E0,7.256956100E0,8.494899381E0
6.665283203E0,3.378934860E0,-3.112513542E0,7.038244724E0,8.404869430E0
6.670257568E0,3.473268509E0,-3.284559011E0,6.744392395E0,8.266725519E0
6.675231933E0,3.530684471E0,-3.335705996E0,6.561140060E0,8.163407758E0
6.680206298E0,3.586451530E0,-3.459616899E0,6.505841255E0,8.194971270E0
6.685150146E0,3.623191833E0,-3.611833096E0,6.549030781E0,8.310394788E0
6.690124511E0,3.635468483E0,-3.769223928E0,6.662202358E0,8.473996718E0
6.695098877E0,3.555150032E0,-3.993119001E0,6.822301865E0,8.667634847E0
6.700073242E0,3.480326653E0,-4.273828030E0,7.137890816E0,9.018190779E0
6.705017089E0,3.397522926E0,-4.546159744E0,7.531454086E0,9.430457630E0
6.709991455E0,3.177882195E0,-4.791248798E0,7.934636116E0,9.798645344E0
6.714965820E0,2.965949059E0,-5.106673717E0,8.390541077E0,1.026041665E1
6.719909668E0,2.811228752E0,-5.523625374E0,8.746932983E0,1.072018101E1
6.724884033E0,2.732651711E0,-6.032154560E0,9.088612556E0,1.124531690E1
6.729858398E0,2.610132217E0,-6.516532898E0,9.537909508E0,1.184270700E1
6.734832763E0,2.690781593E0,-6.768616676E0,1.018099880E1,1.251827520E1
6.739776611E0,2.646791458E0,-7.197628021E0,1.081590366E1,1.325877544E1
6.744750976E0,2.478745461E0,-7.607251644E0,1.134207726E1,1.388009990E1
6.749725341E0,2.948006630E0,-8.276825905E0,1.191784382E1,1.480647127E1
6.754699707E0,2.953799248E0,-8.716847420E0,1.301677895E1,1.594192250E1
6.759674072E0,2.892960548E0,-8.947813034E0,1.436147404E1,1.716637747E1
6.764617920E0,2.681855202E0,-9.346890450E0,1.549333477E1,1.829207836E1
6.769592285E0,2.494485855E0,-9.724351883E0,1.634107590E1,1.917853594E1
6.774566650E0,1.849633217E0,-1.009112740E1,1.631485367E1,1.927242708E1
6.779510498E0,9.041309357E-1,-1.047999763E1,1.628744698E1,1.938888166E1
6.784484863E0,-2.814083099E-1,-1.095025921E1,1.630150795E1,1.963992181E1
6.789459228E0,-1.434541702E0,-1.151750374E1,1.631867409E1,2.002523224E1
6.794433593E0,-2.451813698E0,-1.232438469E1,1.634409332E1,2.061628567E1
6.799377441E0,-3.595132828E0,-1.324910927E1,1.637254143E1,2.136642200E1
6.804351806E0,-4.559864044E0,-1.432717133E1,1.639805031E1,2.224761228E1
6.809326172E0,-5.121858597E0,-1.540363407E1,1.641649437E1,2.308693712E1
6.814300537E0,-5.317966461E0,-1.639295578E1,1.642745590E1,2.380905445E1
6.819244384E0,-5.364405632E0,-1.723130417E1,1.643158913E1,2.440679849E1
6.824218750E0,-5.562921524E0,-1.797561836E1,1.643140984E1,2.498119654E1
6.829193115E0,-5.973881721E0,-1.907930946E1,1.643073845E1,2.587810809E1
6.834167480E0,-6.785487175E0,-1.925873375E1,1.643477821E1,2.621151649E1
6.839111328E0,-7.893588066E0,-1.935565758E1,1.644746017E1,2.659829241E1
6.844085693E0,-9.307101250E0,-1.947824097E1,1.646974945E1,2.715283874E1
6.849060058E0,-1.058762074E1,-1.960169601E1,1.649758148E1,2.772173144E1
6.854034423E0,-1.057146263E1,-1.972883415E1,1.652443504E1,2.782156848E1
6.858978271E0,-1.051064873E1,-1.986367989E1,1.654739189E1,2.790798620E1
6.863952636E0,-1.048712349E1,-2.001079369E1,1.656608772E1,2.801511887E1
6.868927002E0,-1.045274258E1,-2.017203331E1,1.658093834E1,2.812646923E1
6.873901367E0,-1.041925144E1,-2.035014343E1,1.659271622E1,2.824902423E1
6.878845214E0,-1.038943768E1,-2.054628563E1,1.660350037E1,2.838602636E1
6.883819580E0,-1.036287212E1,-2.076548004E1,1.661944771E1,2.854470743E1
6.888793945E0,-1.033869267E1,-2.100813675E1,1.665087700E1,2.873120395E1
6.893768310E0,-1.031622982E1,-2.127561378E1,1.670933151E1,2.895303264E1
6.898712158E0,-1.029666710E1,-2.156726646E1,1.680122185E1,2.921385616E1
6.903686523E0,-1.028315449E1,-2.188737679E1,1.692942238E1,2.951958453E1
6.908660888E0,-1.028036690E1,-2.223330688E1,1.701731110E1,2.982607509E1
6.913635254E0,-1.029295540E1,-2.260296249E1,1.578282261E1,2.942679619E1
6.918579101E0,-1.032491493E1,-2.298995399E1,1.335261059E1,2.852076546E1
6.923553466E0,-1.038065338E1,-2.339383316E1,1.043622780E1,2.763954134E1
6.928527832E0,-1.046293068E1,-2.380586052E1,7.301372051E0,2.700929372E1
6.933502197E0,-1.057374573E1,-2.421996880E1,4.142298222E0,2.675013312E1
6.938446045E0,-1.071269703E1,-2.462644577E1,1.010760188E0,2.687462270E1
6.943420410E0,-1.088183880E1,-2.502524567E1,-2.092723846E0,2.736890260E1
6.948394775E0,-1.107947159E1,-2.540872574E1,-4.993233681E0,2.816541171E1
6.953369140E0,-1.130329418E1,-2.577258492E1,-7.633022785E0,2.915910886E1
6.958312988E0,-1.154867649E1,-2.611150742E1,-9.766593933E0,3.017563761E1
6.963287353E0,-1.181592846E1,-2.642879105E1,-1.130774975E1,3.107993510E1
6.968261718E0,-1.210021782E1,-2.672153473E1,-1.239192772E1,3.184361101E1
6.973236084E0,-1.239808846E1,-2.698973656E1,-1.329042053E1,3.253911115E1
6.978179931E0,-1.270423698E1,-2.723235703E1,-1.477525806E1,3.348592476E1
6.983154297E0,-1.301961899E1,-2.745344734E1,-1.448972797E1,3.366235979E1
6.988128662E0,-1.334010506E1,-2.765243149E1,-1.487256432E1,3.411463820E1
6.993103027E0,-1.366419983E1,-2.783052826E1,-1.479517555E1,3.435325137E1
6.998046875E0,-1.388973999E1,-2.798791504E1,-1.458948421E1,3.448334837E1
7.003021240E0,-1.320017338E1,-2.812786865E1,-1.428048801E1,3.419581714E1
7.007995605E0,-1.185431576E1,-2.824976349E1,-1.385145378E1,3.362196769E1
7.012969970E0,-1.045398521E1,-2.835376740E1,-1.332339001E1,3.302627217E1
7.017913818E0,-9.421501160E0,-2.843916702E1,-1.271261978E1,3.254476312E1
7.022888183E0,-8.668063164E0,-2.850845718E1,-1.180412483E1,3.205003609E1
7.027862548E0,-8.034629822E0,-2.856159210E1,-1.073861408E1,3.155372644E1
7.032836914E0,-7.457448959E0,-2.859897232E1,-9.822961807E0,3.114490876E1
7.037780761E0,-6.819833755E0,-2.862084198E1,-8.915529251E0,3.074328203E1
7.042755127E0,-6.210637093E0,-2.862855148E1,-8.105597496E0,3.039517534E1
7.047729492E0,-5.432847023E0,-2.862257385E1,-7.461964607E0,3.007404989E1
7.052703857E0,-4.480908394E0,-2.860379410E1,-6.961387634E0,2.977778525E1
7.057647705E0,-3.634219646E0,-2.857318306E1,-6.562506199E0,2.954151029E1
7.062622070E0,-2.940585613E0,-2.853163719E1,-6.214071751E0,2.934818653E1
7.067596435E0,-2.332993031E0,-2.847971725E1,-6.094014645E0,2.921770295E1
7.072570800E0,-1.597885013E0,-2.840967560E1,-5.983561039E0,2.907689644E1
7.077514648E0,-9.894780517E-1,-2.778148651E1,-5.866254807E0,2.841131826E1
7.082489013E0,-5.379791260E-1,-2.639033890E1,-5.704144478E0,2.700512309E1
7.087463379E0,-1.262313128E-1,-2.504973221E1,-5.299857140E0,2.560456021E1
7.092437744E0,2.118535340E-1,-2.381421661E1,-4.766093731E0,2.428739270E1
7.097381591E0,5.712394714E-1,-2.270071793E1,-4.249918461E0,2.310217989E1
7.102355957E0,1.001828790E0,-2.160131645E1,-3.740447044E0,2.194564826E1
7.107330322E0,1.313396931E0,-2.052368927E1,-3.321603298E0,2.083218378E1
7.112274170E0,1.460726976E0,-1.942876053E1,-2.981825829E0,1.971044759E1
7.117248535E0,1.602131844E0,-1.826209450E1,-2.742063522E0,1.853617637E1
7.122222900E0,1.657731652E0,-1.738092804E1,-2.819167614E0,1.768593904E1
7.127197265E0,1.679542303E0,-1.660724068E1,-2.980719566E0,1.695600172E1
7.132171631E0,1.941278338E0,-1.592566872E1,-3.237271786E0,1.636689996E1
7.137115478E0,1.903208256E0,-1.492338753E1,-3.028634071E0,1.534608489E1
7.142089843E0,1.788747191E0,-1.390175438E1,-2.947814941E0,1.432298866E1
7.147064209E0,1.434405923E0,-1.311573029E1,-2.848893166E0,1.349800332E1
7.152038574E0,1.025342703E0,-1.239211369E1,-2.820631504E0,1.275036358E1
7.156982422E0,7.736310959E-1,-1.193372726E1,-3.039829731E0,1.233908085E1
7.161956787E0,5.295126438E-1,-1.137792015E1,-3.002722263E0,1.177937993E1
7.166931152E0,3.175675869E-1,-1.075061131E1,-2.626849174E0,1.107144206E1
7.171905517E0,2.216351032E-1,-1.037637138E1,-2.243046761E0,1.061835505E1
7.176849365E0,2.738118172E-1,-9.952511787E0,-1.927299500E0,1.014110187E1
7.181823730E0,3.168623447E-1,-9.495071411E0,-1.635152817E0,9.640047074E0
7.186798095E0,1.954271793E-1,-8.893545151E0,-1.635527134E0,9.044793316E0
7.191772461E0,3.679156303E-1,-8.300407410E0,-1.740651131E0,8.488933469E0
7.196716308E0,3.937072754E-1,-7.755189419E0,-1.636330128E0,7.935713240E0
7.201690673E0,4.044711590E-1,-7.552493572E0,-1.540033340E0,7.718514026E0
7.206665039E0,5.058596134E-1,-7.110168934E0,-1.405699730E0,7.265424141E0
7.211639404E0,4.902782440E-1,-6.445154667E0,-1.428140163E0,6.619665835E0
7.216613769E0,5.320556164E-1,-5.986959457E0,-1.573546886E0,6.213116491E0
7.221557617E0,6.339845657E-1,-5.613454819E0,-1.667418480E0,5.890084534E0
7.226531982E0,7.290835381E-1,-5.316481590E0,-1.505436420E0,5.573408124E0
7.231475830E0,5.740754604E-1,-4.967633724E0,-1.363441467E0,5.183234520E0
7.236450195E0,4.626691341E-1,-4.662420273E0,-1.390424252E0,4.887279931E0
7.241424560E0,3.851590157E-1,-4.372344017E0,-1.600718498E0,4.672048735E0
7.246398925E0,2.435698509E-1,-4.218669415E0,-1.808351040E0,4.596371546E0
7.251373291E0,1.484210491E-1,-4.065706253E0,-1.845675468E0,4.467495280E0
7.256317138E0,-1.705384254E-2,-3.882219791E0,-1.836990356E0,4.294933633E0
7.261291504E0,-4.897141457E-2,-3.663925648E0,-1.843253136E0,4.101747368E0
7.266265869E0,-2.573418617E-2,-3.485549450E0,-1.947464943E0,3.992785609E0
7.271209716E0,-9.057521820E-3,-3.464351654E0,-1.989459991E0,3.994967519E0
7.276184082E0,-1.339669228E-1,-3.320241451E0,-1.925807476E0,3.840662035E0
7.281158447E0,-2.016022205E-1,-3.196389198E0,-1.836538792E0,3.691940153E0
7.286132812E0,-2.179245949E-1,-3.101545334E0,-1.788485527E0,3.586886542E0
7.291076660E0,-2.106735706E-1,-3.037319660E0,-1.766335964E0,3.519891591E0
7.296051025E0,-1.490197182E-1,-2.960009575E0,-1.767723083E0,3.450899659E0
7.301025390E0,-1.110777855E-1,-2.898776054E0,-1.687182903E0,3.355864574E0
7.305999756E0,-4.523205757E-2,-2.806802273E0,-1.576478481E0,3.219544896E0
7.310974121E0,-3.159809113E-2,-2.747781754E0,-1.477646351E0,3.120054766E0
7.315917968E0,-8.451700211E-3,-2.748836040E0,-1.435231209E0,3.100977206E0
7.320892334E0,-2.862119675E-2,-2.591240883E0,-1.429425240E0,2.959494045E0
7.325866699E0,-7.178950310E-2,-2.554131508E0,-1.412404060E0,2.919525085E0
7.330810547E0,-3.936457634E-2,-2.350954533E0,-1.411821842E0,2.742585951E0
7.335784912E0,1.630687714E-2,-2.251234055E0,-1.427787781E0,2.665876709E0
7.340759277E0,1.075094938E-1,-2.267907619E0,-1.394376755E0,2.664441742E0
7.345733642E0,1.458039284E-1,-2.259756565E0,-1.362864494E0,2.642944977E0
7.350708007E0,1.956368685E-1,-2.112679958E0,-1.425683022E0,2.556220348E0
7.355651855E0,2.367559671E-1,-2.028731823E0,-1.568670750E0,2.575370676E0
7.360626220E0,2.572997808E-1,-2.044135571E0,-1.690144539E0,2.664823065E0
7.365600586E0,1.979310513E-1,-2.047129631E0,-1.696512222E0,2.666096425E0
7.370574951E0,7.319831848E-2,-2.025704861E0,-1.686104774E0,2.636624260E0
7.375518798E0,-1.305555105E-1,-1.941282749E0,-1.816805840E0,2.662030599E0
7.380493164E0,-3.664493561E-1,-1.821718693E0,-1.974662781E0,2.711500917E0
7.385467529E0,-6.460282803E-1,-1.873398781E0,-2.037057877E0,2.841932498E0
7.390411377E0,-8.233256340E-1,-1.871619701E0,-2.017430782E0,2.872429698E0
7.395385742E0,-8.775593042E-1,-1.793852806E0,-1.858073711E0,2.727719953E0
7.400360107E0,-9.181178808E-1,-1.740862846E0,-1.730491638E0,2.620714636E0
7.405334472E0,-9.635968208E-1,-1.773880482E0,-1.651109695E0,2.607936737E0
7.410278320E0,-9.462548494E-1,-1.804098129E0,-1.605834484E0,2.594007072E0
7.415252685E0,-8.598599434E-1,-1.842353344E0,-1.512553215E0,2.534056470E0
7.420227050E0,-6.663635969E-1,-1.816264629E0,-1.575400352E0,2.494943670E0
7.425201416E0,-5.213618279E-1,-1.781202316E0,-1.541303158E0,2.412491507E0
7.430145263E0,-4.714506865E-1,-1.740633488E0,-1.415315151E0,2.292419609E0
7.435119629E0,-3.286824226E-1,-1.714241505E0,-1.258076191E0,2.151606789E0
7.440093994E0,-7.105815411E-2,-1.735898972E0,-1.172852039E0,2.096181387E0
7.445068359E0,4.582047462E-2,-1.800305367E0,-1.187483311E0,2.157154501E0
7.450012207E0,2.752065659E-3,-1.794446468E0,-1.161805153E0,2.137717688E0
7.454986572E0,-7.770764828E-2,-1.718054771E0,-1.118714809E0,2.051651408E0
7.459960937E0,-1.476626396E-1,-1.612633228E0,-9.402637482E-1,1.872561374E0
7.464935302E0,-1.387001276E-1,-1.677984238E0,-7.534546852E-1,1.844603695E0
7.469909668E0,-9.374892712E-2,-1.688778877E0,-7.253775597E-1,1.840362889E0
7.474853515E0,-4.082763195E-2,-1.755764484E0,-8.918709755E-1,1.969723244E0
7.479827881E0,5.131185055E-2,-1.783231258E0,-1.003297329E0,2.046741839E0
7.484802246E0,2.079094648E-1,-1.814798355E0,-8.457145691E-1,2.012946236E0
7.489746093E0,3.120362759E-1,-1.905219555E0,-6.668877602E-1,2.042539467E0
7.494720459E0,3.568948507E-1,-1.924943924E0,-7.122678757E-1,2.083292723E0
7.499694824E0,3.899762630E-1,-2.013477802E0,-9.112420082E-1,2.244222882E0
7.504669189E0,4.142799377E-1,-2.137556076E0,-9.440274239E-1,2.373175430E0
7.509613037E0,3.557096124E-1,-2.234524727E0,-9.376950264E-1,2.449265614E0
7.514587402E0,1.871004701E-1,-2.342157364E0,-9.849576950E-1,2.547714537E0
7.519531250E0,-1.918995380E-2,-2.447863102E0,-1.140202045E0,2.700456022E0
7.524505615E0,-1.980970502E-1,-2.571025372E0,-1.318592072E0,2.896221496E0
7.529479980E0,-3.240053654E-1,-2.678454876E0,-1.403804302E0,3.041342881E0
7.534454345E0,-4.658150077E-1,-2.730460167E0,-1.411024570E0,3.108598830E0
7.539428711E0,-6.126661301E-1,-2.801196575E0,-1.351556778E0,3.169979142E0
7.544403076E0,-7.238355279E-1,-2.897319317E0,-1.289432526E0,3.252850032E0
7.549377441E0,-7.153006792E-1,-2.969812870E0,-1.181545258E0,3.275285139E0
7.554321289E0,-6.653640270E-1,-3.100487232E0,-1.129991531E0,3.366394396E0
7.559295654E0,-6.015025973E-1,-3.168104649E0,-1.143138409E0,3.421323992E0
7.564270019E0,-5.423427820E-1,-3.220060825E0,-1.070915222E0,3.436537040E0
7.569213867E0,-6.266813278E-1,-3.270698071E0,-9.685149193E-1,3.468171925E0
7.574188232E0,-9.467920661E-1,-3.357424259E0,-1.131782532E0,3.667375706E0
7.579162597E0,-1.224526405E0,-3.313004971E0,-1.465243340E0,3.823925326E0
7.584136963E0,-1.429220080E0,-3.410719395E0,-1.778048038E0,4.103307404E0
7.589080810E0,-1.520120263E0,-3.795336246E0,-2.132651329E0,4.611241105E0
7.594055175E0,-1.736954331E0,-3.946996212E0,-2.282646179E0,4.879166222E0
7.599029541E0,-1.899366021E0,-4.023603439E0,-1.814571857E0,4.805168774E0
7.604003906E0,-2.047568083E0,-4.055862904E0,-1.209609509E0,4.701671417E0
7.608947754E0,-2.213148117E0,-4.026342869E0,-1.920463085E0,4.979722879E0
7.613922119E0,-2.123619080E0,-3.998431683E0,-1.347715378E0,4.723722119E0
7.618896484E0,-1.822489023E0,-4.089416027E0,-1.390612125E0,4.688133079E0
7.623870849E0,-1.707677126E0,-4.154118061E0,-1.493248463E0,4.733143670E0
7.628814697E0,-1.818184972E0,-4.057271957E0,-9.740252495E-1,4.551480805E0
7.633789062E0,-1.878581047E0,-4.026245117E0,-1.070235252E0,4.570024069E0
7.638763427E0,-1.781683564E0,-4.160976887E0,-1.115255356E0,4.661750689E0
7.643737793E0,-1.755962133E0,-4.366388798E0,-1.229064465E0,4.864088158E0
7.648681640E0,-1.827436566E0,-4.483858585E0,-1.296094418E0,5.012421865E0
7.653656006E0,-1.839698434E0,-4.609794617E0,-1.340943813E0,5.141286517E0
7.658630371E0,-1.855450034E0,-4.787762642E0,-1.481815338E0,5.344262591E0
7.663604736E0,-1.919280171E0,-4.916232109E0,-1.503418922E0,5.487553461E0
7.668548584E0,-2.111581564E0,-5.053321838E0,-1.573163033E0,5.698217285E0
7.673522949E0,-2.194611549E0,-5.208863258E0,-1.687561512E0,5.898850749E0
7.678497314E0,-2.394866943E0,-5.486268997E0,-1.785589695E0,6.246828455E0
7.683471679E0,-2.642969370E0,-5.658913136E0,-1.802073479E0,6.500465659E0
7.688415527E0,-2.876046181E0,-5.800899506E0,-1.738624096E0,6.704095051E0
7.693389892E0,-3.050379753E0,-5.938849926E0,-1.728354454E0,6.896518267E0
7.698364257E0,-3.029712200E0,-6.105653286E0,-1.738407612E0,7.034217731E0
7.703338623E0,-2.958250046E0,-6.213447094E0,-1.800281048E0,7.113310057E0
7.708282470E0,-3.028371334E0,-6.262104511E0,-1.811280727E0,7.187887292E0
7.713256836E0,-3.120387554E0,-6.260429859E0,-1.895761967E0,7.247324606E0
7.718231201E0,-3.095403194E0,-6.248383045E0,-2.137058258E0,7.293204345E0
7.723205566E0,-3.075102806E0,-6.347800732E0,-2.328717232E0,7.427903832E0
7.728149414E0,-3.081065655E0,-6.492983341E0,-2.469150066E0,7.599243402E0
7.733123779E0,-2.984012604E0,-6.739169598E0,-2.594948292E0,7.813737564E0
7.738098144E0,-3.161099911E0,-6.799311161E0,-2.580157757E0,7.929716197E0
7.743072509E0,-3.250084877E0,-6.856750011E0,-2.664351940E0,8.042191473E0
7.748016357E0,-3.303820133E0,-6.955952644E0,-2.606631279E0,8.129885072E0
7.752990722E0,-3.324236870E0,-7.165513515E0,-2.591012478E0,8.313151049E0
7.757965088E0,-3.277381420E0,-7.381951332E0,-2.579193115E0,8.478600802E0
7.762939453E0,-3.370943546E0,-7.523562431E0,-2.386185646E0,8.582606480E0
7.767883300E0,-3.447599888E0,-7.717626095E0,-2.229557991E0,8.741774783E0
7.772857666E0,-3.493389130E0,-8.182060242E0,-2.206462860E0,9.166152724E0
7.777832031E0,-3.616236925E0,-8.413450241E0,-1.889214516E0,9.350531854E0
7.782806396E0,-3.734928608E0,-8.041488647E0,-1.839589119E0,9.055347564E0
7.787750244E0,-3.841929436E0,-8.084662437E0,-2.123278141E0,9.199483604E0
7.792724609E0,-3.863189459E0,-8.563396454E0,-2.446211338E0,9.707725868E0
7.797698974E0,-3.927619934E0,-9.241593361E0,-2.476351261E0,1.034241566E1
7.802673339E0,-4.224649429E0,-9.568460464E0,-2.417357922E0,1.073530241E1
7.807647705E0,-4.583291531E0,-9.614601135E0,-2.368540287E0,1.091132894E1
7.812591552E0,-4.843194008E0,-9.699823380E0,-2.245256424E0,1.107177846E1
7.817565918E0,-5.243324280E0,-9.827951431E0,-2.236993313E0,1.136156758E1
7.822540283E0,-5.588479996E0,-1.005245590E1,-2.247796059E0,1.171902579E1
7.827514648E0,-6.091226578E0,-1.028332710E1,-2.155964851E0,1.214487719E1
7.832458496E0,-6.553843021E0,-1.062137222E1,-2.090535641E0,1.265451483E1
7.837432861E0,-7.063035011E0,-1.088721085E1,-1.849003315E0,1.310864741E1
7.842407226E0,-7.399127960E0,-1.117364311E1,-1.665124893E0,1.350444504E1
7.847381591E0,-7.634387016E0,-1.139633560E1,-1.514752388E0,1.380053640E1
7.852325439E0,-7.864108562E0,-1.166700554E1,-1.377492428E0,1.413721002E1
7.857299804E0,-8.148538589E0,-1.185024643E1,-1.095725060E0,1.442316314E1
7.862274170E0,-8.557384491E0,-1.194361115E1,-1.068707466E0,1.473162626E1
7.867248535E0,-9.091763496E0,-1.210313606E1,-1.063549995E0,1.517488730E1
7.872192382E0,-9.582162857E0,-1.224436760E1,-1.063857079E0,1.558442090E1
7.877166748E0,-9.888891220E0,-1.277385807E1,-1.032294750E0,1.618725585E1
7.882161325E0,-1.028487587E1,-1.301830482E1,-8.006920815E-1,1.661011860E1
7.887105173E0,-1.043249893E1,-1.320970345E1,-6.083836555E-1,1.684349814E1
7.892079538E0,-1.047612953E1,-1.323976135E1,-4.912247658E-1,1.689028929E1
7.897053903E0,-1.058917522E1,-1.294022465E1,-1.943178177E-1,1.672177638E1
7.902028268E0,-1.049004936E1,-1.318407440E1,-8.467006683E-2,1.684838635E1
7.906972116E0,-1.043494415E1,-1.370483017E1,2.165925503E-1,1.722664627E1
7.911946481E0,-1.010760117E1,-1.374488068E1,1.819341898E0,1.715795300E1
7.916920846E0,-9.982727051E0,-1.329019260E1,1.254135132E0,1.666904058E1
7.921895212E0,-9.971158981E0,-1.289300537E1,1.665305614E0,1.638373711E1
7.926869577E0,-9.478712082E0,-1.296924019E1,2.011519432E0,1.618929845E1
7.931813425E0,-9.000514030E0,-1.327934265E1,2.744129658E0,1.627514798E1
7.936787790E0,-8.717061996E0,-1.328252983E1,3.199311972E0,1.620642976E1
7.941762155E0,-8.107666016E0,-1.325934601E1,3.405822039E0,1.591050372E1
7.946706003E0,-7.515536308E0,-1.323554802E1,3.528187752E0,1.562405601E1
7.951680368E0,-7.011395454E0,-1.319633293E1,3.668742895E0,1.538709016E1
7.956654733E0,-6.445198059E0,-1.311739922E1,3.778030872E0,1.509570328E1
7.961629098E0,-5.877072334E0,-1.297118187E1,3.808029890E0,1.474084902E1
7.966572946E0,-5.388073921E0,-1.280495071E1,3.686991930E0,1.437330904E1
7.971547311E0,-5.039021969E0,-1.269328117E1,3.491824627E0,1.409623952E1
7.976521676E0,-4.751790047E0,-1.274874878E1,3.299411297E0,1.399986496E1
7.981496042E0,-4.156757832E0,-1.293139076E1,3.369889736E0,1.399484403E1
7.986470407E0,-4.090359688E0,-1.286156273E1,3.179498672E0,1.386578703E1
7.991414255E0,-3.740120888E0,-1.288922310E1,3.102854967E0,1.377491507E1
7.996388620E0,-3.360461712E0,-1.295142460E1,2.977303505E0,1.370753217E1
8.001362985E0,-3.039753437E0,-1.301030731E1,3.029568195E0,1.369987156E1
8.006306833E0,-2.723755360E0,-1.321444988E1,2.867428064E0,1.379357360E1
8.011281198E0,-2.412936211E0,-1.346959972E1,2.702475786E0,1.394832439E1
8.016255563E0,-2.234629631E0,-1.373152161E1,2.651098490E0,1.416250608E1
8.021229928E0,-2.247115135E0,-1.357587433E1,2.694247484E0,1.402187076E1
8.026173776E0,-2.072700500E0,-1.346737289E1,2.624632835E0,1.387641588E1
8.031148141E0,-1.955928802E0,-1.368395996E1,2.444074392E0,1.403744697E1
8.036122507E0,-1.889712334E0,-1.394550991E1,2.249839306E0,1.425166784E1
8.041096872E0,-1.849511147E0,-1.413275337E1,2.117759228E0,1.440972982E1
8.046071237E0,-1.774010658E0,-1.419349766E1,2.129520655E0,1.446158179E1
8.051015085E0,-1.673338890E0,-1.431189728E1,2.170251369E0,1.457190646E1
8.055989450E0,-1.411785126E0,-1.441808128E1,2.094053745E0,1.463759769E1
8.060963815E0,-1.219365120E0,-1.452330017E1,1.904467344E0,1.469830245E1
8.065907663E0,-9.642581940E-1,-1.465456009E1,1.713298321E0,1.478584852E1
8.070882028E0,-8.902254105E-1,-1.484916496E1,1.534969449E0,1.495480968E1
8.075856393E0,-6.171627045E-1,-1.500714016E1,1.371849179E0,1.508234450E1
8.080830759E0,-4.861326218E-1,-1.517797756E1,1.374048829E0,1.524779781E1
8.085774606E0,-3.372840881E-1,-1.526561260E1,1.244011164E0,1.531992991E1
8.090748971E0,-5.790290833E-1,-1.534153938E1,1.085881233E0,1.539081685E1
8.095723337E0,-1.083377838E0,-1.552110100E1,1.062485456E0,1.559510048E1
8.100697702E0,-1.595873833E0,-1.576851749E1,1.124850512E0,1.588893470E1
8.105641550E0,-1.907769203E0,-1.613675690E1,1.217237949E0,1.629466706E1
8.110615915E0,-2.231912613E0,-1.632346916E1,1.523671865E0,1.654565367E1
8.115590280E0,-2.556768417E0,-1.623627281E1,2.026577950E0,1.656081634E1
8.120564645E0,-2.680565834E0,-1.622082901E1,2.476470232E0,1.662629339E1
8.125508493E0,-2.716340065E0,-1.637339401E1,2.807313681E0,1.683293037E1
8.130482858E0,-2.669199944E0,-1.642574120E1,3.076904058E0,1.692326626E1
8.135457223E0,-2.633331299E0,-1.635390282E1,3.351826191E0,1.690027544E1
8.140431589E0,-2.712922096E0,-1.628578186E1,3.528032064E0,1.688293954E1
8.145375436E0,-2.733655930E0,-1.623569298E1,3.847692490E0,1.690784844E1
8.150349801E0,-2.631452560E0,-1.611307526E1,4.154164314E0,1.684674503E1
8.155324167E0,-2.442267418E0,-1.587706757E1,4.349270821E0,1.664217838E1
8.160298532E0,-2.361100197E0,-1.582706070E1,4.348693848E0,1.658257467E1
8.165242380E0,-2.398146152E0,-1.600014305E1,4.176370144E0,1.670921154E1
8.170216745E0,-2.332591057E0,-1.541829300E1,4.120604038E0,1.612898378E1
