"Time (s)","Gyroscope x (rad/s)","Gyroscope y (rad/s)","Gyroscope z (rad/s)"
0.000000000E0,1.296539307E-1,-4.375610352E-1,-3.593750000E-1
2.502442000E-3,1.466979980E-1,-4.343566895E-1,-3.625640869E-1
4.974366000E-3,1.648101807E-1,-4.077301025E-1,-3.540496826E-1
7.476807000E-3,1.925048828E-1,-3.683166504E-1,-3.487243652E-1
9.948731000E-3,2.212677002E-1,-3.289031982E-1,-3.455200195E-1
1.242065500E-2,2.457733154E-1,-2.894897461E-1,-3.444671631E-1
1.489257800E-2,2.681427002E-1,-2.458190918E-1,-3.487243652E-1
1.739502000E-2,2.883758545E-1,-1.968078613E-1,-3.476562500E-1
1.986694400E-2,3.086242676E-1,-1.488800049E-1,-3.455200195E-1
2.236938500E-2,3.235321045E-1,-1.030731201E-1,-3.433990479E-1
2.484130900E-2,3.363189697E-1,-6.259155273E-2,-3.465881348E-1
2.734375000E-2,3.448333740E-1,-1.890563965E-2,-3.455200195E-1
2.981567400E-2,3.533630371E-1,2.369689941E-2,-3.433990479E-1
3.228759800E-2,3.565521240E-1,6.417846680E-2,-3.433990479E-1
3.479003900E-2,3.597564697E-1,1.131896973E-1,-3.380737305E-1
3.726196300E-2,3.597564697E-1,1.547241211E-1,-3.359375000E-1
3.973388700E-2,3.512268066E-1,1.877441406E-1,-3.263549805E-1
4.223632800E-2,3.416442871E-1,2.186431885E-1,-3.178253174E-1
4.470825200E-2,3.267211914E-1,2.463378906E-1,-3.125000000E-1
4.718017600E-2,3.160705566E-1,2.665863037E-1,-3.071746826E-1
4.968261700E-2,3.022308350E-1,2.761688232E-1,-2.997131348E-1
5.215454100E-2,2.883758545E-1,2.825622559E-1,-2.933349609E-1
5.465698300E-2,2.819824219E-1,2.846832275E-1,-2.826690674E-1
5.712890700E-2,2.692108154E-1,2.751007080E-1,-2.741546631E-1
5.960083000E-2,2.606811523E-1,2.548675537E-1,-2.677612305E-1
6.210327200E-2,2.510986328E-1,2.356872559E-1,-2.635040283E-1
6.457519600E-2,2.425689697E-1,2.154541016E-1,-2.581787109E-1
6.704711900E-2,2.340545654E-1,1.898803711E-1,-2.528533936E-1
6.954956100E-2,2.265930176E-1,1.579284668E-1,-2.443237305E-1
7.202148500E-2,2.170104980E-1,1.238403320E-1,-2.379302979E-1
7.452392600E-2,2.063598633E-1,8.654785156E-2,-2.336730957E-1
7.699585000E-2,1.988983154E-1,4.927062988E-2,-2.272796631E-1
7.946777400E-2,1.850433350E-1,1.091003418E-2,-2.176971436E-1
8.197021500E-2,1.701354980E-1,-2.955627441E-2,-2.155609131E-1
8.444213900E-2,1.573486328E-1,-7.536315918E-2,-2.102355957E-1
8.694458000E-2,1.424407959E-1,-1.243743896E-1,-2.091674805E-1
8.941650400E-2,1.243286133E-1,-1.744384766E-1,-2.070465088E-1
9.188842800E-2,1.051483154E-1,-2.308959961E-1,-1.995849609E-1
9.439086900E-2,9.130859375E-2,-2.884216309E-1,-1.921234131E-1
9.686279300E-2,7.319641113E-2,-3.310394287E-1,-1.857299805E-1
9.933471700E-2,5.722045898E-2,-3.651275635E-1,-1.740112305E-1
1.018371590E-1,4.229736328E-2,-4.002685547E-1,-1.708221436E-1
1.043090820E-1,2.738952637E-2,-4.386291504E-1,-1.665649414E-1
1.067810060E-1,1.353454590E-2,-4.705810547E-1,-1.591033936E-1
1.092834480E-1,7.629394531E-4,-4.982757568E-1,-1.548461914E-1
1.117553710E-1,-9.902954102E-3,-5.249176025E-1,-1.548461914E-1
1.142578130E-1,-2.799987793E-2,-5.568695068E-1,-1.537780762E-1
1.167297370E-1,-3.865051270E-2,-5.867004395E-1,-1.548461914E-1
1.192016600E-1,-4.504394531E-2,-6.165313721E-1,-1.548461914E-1
1.217041020E-1,-4.931640625E-2,-6.484832764E-1,-1.612396240E-1
1.241760260E-1,-5.464172363E-2,-6.772460938E-1,-1.708221436E-1
1.266479500E-1,-5.889892578E-2,-7.017517090E-1,-1.772155762E-1
1.291503910E-1,-5.996704102E-2,-7.187957764E-1,-1.857299805E-1
1.316223150E-1,-5.889892578E-2,-7.337036133E-1,-2.006530762E-1
1.341247560E-1,-5.464172363E-2,-7.443542480E-1,-2.155609131E-1
1.365966800E-1,-3.227233887E-2,-7.603302002E-1,-2.411346436E-1
1.390686040E-1,-2.694702148E-2,-7.773742676E-1,-2.602996826E-1
1.415710450E-1,-1.734924316E-2,-7.826995850E-1,-2.794799805E-1
1.440429690E-1,-1.416015625E-2,-7.880249023E-1,-2.922668457E-1
1.465148930E-1,-1.734924316E-2,-7.848358154E-1,-2.975921631E-1
1.490173340E-1,-4.078674316E-2,-7.869720459E-1,-2.922668457E-1
1.514892580E-1,-5.464172363E-2,-7.944183350E-1,-2.911987305E-1
1.539917000E-1,-6.208801270E-2,-7.816467285E-1,-2.837371826E-1
1.564636230E-1,-7.807922363E-2,-7.582092285E-1,-2.720184326E-1
1.589355470E-1,-1.004486084E-1,-7.496795654E-1,-2.613677979E-1
1.614379890E-1,-1.366577148E-1,-7.507476807E-1,-2.379302979E-1
1.639099120E-1,-1.813964844E-1,-7.603302002E-1,-2.155609131E-1
1.663818360E-1,-1.963195801E-1,-7.667236328E-1,-2.070465088E-1
1.688842780E-1,-2.080383301E-1,-7.613983154E-1,-2.049102783E-1
1.713562010E-1,-2.069702148E-1,-7.486114502E-1,-2.123718262E-1
1.738281250E-1,-2.154846191E-1,-7.326354980E-1,-2.219543457E-1
1.763305670E-1,-2.133636475E-1,-7.113342285E-1,-2.336730957E-1
1.788024910E-1,-2.112274170E-1,-6.910858154E-1,-2.528533936E-1
1.813049320E-1,-2.144317627E-1,-6.495513916E-1,-2.688293457E-1
1.837768560E-1,-2.176208496E-1,-6.101379395E-1,-2.794799805E-1
1.862487800E-1,-2.261505127E-1,-5.728454590E-1,-2.901306152E-1
1.887512210E-1,-2.335968018E-1,-5.291748047E-1,-2.933349609E-1
1.912231450E-1,-2.431945801E-1,-4.801635742E-1,-2.922668457E-1
1.936950690E-1,-2.549133301E-1,-4.343566895E-1,-2.816162109E-1
1.961975100E-1,-2.708892822E-1,-3.906860352E-1,-2.709503174E-1
1.986694340E-1,-2.857971191E-1,-3.565979004E-1,-2.517852783E-1
2.011718750E-1,-2.953796387E-1,-3.299713135E-1,-2.326049805E-1
2.036437990E-1,-3.028411865E-1,-2.980041504E-1,-2.113037109E-1
2.061157230E-1,-3.070983887E-1,-2.724456787E-1,-1.921234131E-1
2.086181640E-1,-3.134918213E-1,-2.554016113E-1,-1.825408936E-1
2.110900880E-1,-3.145599365E-1,-2.404785156E-1,-1.729583740E-1
2.135620120E-1,-3.113708496E-1,-2.277069092E-1,-1.708221436E-1
2.160644530E-1,-3.081665039E-1,-2.095947266E-1,-1.708221436E-1
2.185363770E-1,-3.049774170E-1,-1.946716309E-1,-1.697540283E-1
2.210388190E-1,-2.975158691E-1,-1.882934570E-1,-1.676330566E-1
2.235107420E-1,-2.943267822E-1,-1.840209961E-1,-1.676330566E-1
2.259826660E-1,-2.900543213E-1,-1.712493896E-1,-1.623077393E-1
2.284851080E-1,-2.836608887E-1,-1.627197266E-1,-1.527099609E-1
2.309570320E-1,-2.762145996E-1,-1.488800049E-1,-1.452636719E-1
2.334289550E-1,-2.666168213E-1,-1.382141113E-1,-1.303405762E-1
2.359313970E-1,-2.559661865E-1,-1.233062744E-1,-1.207580566E-1
2.384033210E-1,-2.517089844E-1,-1.041259766E-1,-1.101074219E-1
2.409057620E-1,-2.399902344E-1,-7.431030273E-2,-1.015777588E-1
2.433776860E-1,-2.314758301E-1,-4.447937012E-2,-8.879089355E-2
2.458496100E-1,-2.261505127E-1,-9.323120117E-3,-7.920837402E-2
2.483520510E-1,-2.218780518E-1,2.690124512E-2,-7.281494141E-2
2.508239750E-1,-2.154846191E-1,6.311035156E-2,-6.962585449E-2
2.532958990E-1,-2.016448975E-1,9.507751465E-2,-6.002807617E-2
2.557983400E-1,-1.952514648E-1,1.248931885E-1,-5.258178711E-2
2.582702640E-1,-1.824645996E-1,1.600494385E-1,-4.618835449E-2
2.607727050E-1,-1.739501953E-1,1.973419189E-1,-4.193115234E-2
2.632446290E-1,-1.622314453E-1,2.239685059E-1,-3.660583496E-2
2.657165530E-1,-1.483764648E-1,2.431488037E-1,-2.914428711E-2
2.682189940E-1,-1.302642822E-1,2.623138428E-1,-3.021240234E-2
2.706909180E-1,-1.185455322E-1,2.772369385E-1,-2.700805664E-2
2.731628420E-1,-1.068420410E-1,2.910766602E-1,-2.488708496E-2
2.756652840E-1,-9.617614746E-2,3.027954102E-1,-1.956176758E-2
2.781372070E-1,-8.020019531E-2,3.081207275E-1,-1.210021973E-2
2.806396490E-1,-6.422424316E-2,3.123931885E-1,-7.843017578E-3
2.831115730E-1,-5.143737793E-2,3.166503906E-1,-3.570556641E-3
2.855834960E-1,-3.759765625E-2,3.145141602E-1,2.822875977E-3
2.880859380E-1,-1.734924316E-2,3.059997559E-1,9.201049805E-3
2.905578620E-1,-3.051757812E-4,2.985382080E-1,1.347351074E-2
2.930297850E-1,1.460266113E-2,2.857513428E-1,1.559448242E-2
2.955322270E-1,3.485107422E-2,2.665863037E-1,1.879882812E-2
2.980041510E-1,5.508422852E-2,2.410125732E-1,2.305603027E-2
3.005065920E-1,7.638549805E-2,2.090606689E-1,3.051757812E-2
3.029785160E-1,9.556579590E-2,1.739044189E-1,4.223632812E-2
3.054504400E-1,1.136779785E-1,1.312866211E-1,4.861450195E-2
3.079528810E-1,1.328430176E-1,8.122253418E-2,5.714416504E-2
3.104248050E-1,1.552276611E-1,3.009033203E-2,6.993103027E-2
3.128967290E-1,1.712036133E-1,-1.997375488E-2,8.483886719E-2
3.153991700E-1,1.871795654E-1,-7.217407227E-2,9.762573242E-2
3.178710940E-1,2.084808350E-1,-1.264953613E-1,1.125335693E-1
3.203735350E-1,2.287292480E-1,-1.850891113E-1,1.253204346E-1
3.228454590E-1,2.478942871E-1,-2.383575439E-1,1.391754150E-1
3.253173830E-1,2.628173828E-1,-2.926788330E-1,1.508941650E-1
3.278198250E-1,2.798614502E-1,-3.448791504E-1,1.615447998E-1
3.302917480E-1,2.873077393E-1,-3.970794678E-1,1.721954346E-1
3.327636720E-1,2.937011719E-1,-4.482116699E-1,1.817779541E-1
3.352661140E-1,2.979736328E-1,-4.918823242E-1,1.924285889E-1
3.377380370E-1,2.969055176E-1,-5.312957764E-1,2.041473389E-1
3.402404790E-1,2.915802002E-1,-5.717773438E-1,2.158660889E-1
3.427124030E-1,2.777252197E-1,-6.058654785E-1,2.201232910E-1
3.451843260E-1,2.670745850E-1,-6.356964111E-1,2.297210693E-1
3.476867680E-1,2.489624023E-1,-6.612701416E-1,2.318420410E-1
3.501586920E-1,2.276611328E-1,-6.857604980E-1,2.286529541E-1
3.526306160E-1,2.052917480E-1,-7.006835938E-1,2.211914062E-1
3.551330570E-1,1.807861328E-1,-7.166595459E-1,2.180023193E-1
3.576049810E-1,1.573486328E-1,-7.283782959E-1,2.105407715E-1
3.601074220E-1,1.307220459E-1,-7.400970459E-1,2.030792236E-1
3.625793460E-1,9.982299805E-2,-7.432861328E-1,1.881713867E-1
3.650512700E-1,7.426452637E-2,-7.411651611E-1,1.721954346E-1
3.675537110E-1,4.017639160E-2,-7.411651611E-1,1.572723389E-1
3.700256350E-1,1.141357422E-2,-7.326354980E-1,1.381072998E-1
3.724975590E-1,-1.841735840E-2,-7.262420654E-1,1.231842041E-1
3.750000000E-1,-4.824829102E-2,-7.134704590E-1,1.136016846E-1
3.774719240E-1,-6.848144531E-2,-6.921539307E-1,1.018829346E-1
3.799743660E-1,-9.191894531E-2,-6.751098633E-1,8.909606934E-2
3.824462890E-1,-1.068420410E-1,-6.580657959E-1,7.951354980E-2
3.849182130E-1,-1.164245605E-1,-6.399536133E-1,7.312011719E-2
3.874206550E-1,-1.260070801E-1,-6.239776611E-1,6.460571289E-2
3.898925780E-1,-1.313323975E-1,-6.048126221E-1,5.714416504E-2
3.923645020E-1,-1.366577148E-1,-5.867004395E-1,5.075073242E-2
3.948669440E-1,-1.334686279E-1,-5.749816895E-1,4.435729980E-2
3.973388670E-1,-1.355895996E-1,-5.579376221E-1,3.691101074E-2
3.998413090E-1,-1.324005127E-1,-5.462188721E-1,3.584289551E-2
4.023132330E-1,-1.292114258E-1,-5.334320068E-1,3.584289551E-2
4.047851570E-1,-1.249389648E-1,-5.238494873E-1,3.796386719E-2
4.072875980E-1,-1.270751953E-1,-5.153198242E-1,4.010009766E-2
4.097595220E-1,-1.249389648E-1,-5.057373047E-1,4.223632812E-2
4.122314460E-1,-1.302642822E-1,-4.961547852E-1,4.649353027E-2
4.147338870E-1,-1.398620605E-1,-4.822998047E-1,5.181884766E-2
4.172058110E-1,-1.505126953E-1,-4.663238525E-1,5.821228027E-2
4.197082520E-1,-1.579742432E-1,-4.460754395E-1,6.246948242E-2
4.221801760E-1,-1.675567627E-1,-4.237060547E-1,6.565856934E-2
4.246521000E-1,-1.760711670E-1,-3.970794678E-1,7.525634766E-2
4.271545410E-1,-1.867218018E-1,-3.736419678E-1,8.483886719E-2
4.296264650E-1,-2.005767822E-1,-3.512725830E-1,9.336853027E-2
4.320983890E-1,-2.059020996E-1,-3.257141113E-1,1.061401367E-1
4.346008300E-1,-2.080383301E-1,-3.012084961E-1,1.199951172E-1
4.370727540E-1,-2.080383301E-1,-2.724456787E-1,1.317138672E-1
4.395751960E-1,-2.048339844E-1,-2.490081787E-1,1.391754150E-1
4.420471190E-1,-1.984405518E-1,-2.255706787E-1,1.476898193E-1
4.445495610E-1,-1.909942627E-1,-2.032012939E-1,1.604766846E-1
4.470214850E-1,-1.813964844E-1,-1.776275635E-1,1.689910889E-1
4.494934090E-1,-1.707458496E-1,-1.584625244E-1,1.817779541E-1
4.519653320E-1,-1.558380127E-1,-1.360931396E-1,1.956329346E-1
4.544677740E-1,-1.409301758E-1,-1.201171875E-1,2.073516846E-1
4.569396980E-1,-1.228179932E-1,-9.773254395E-2,2.201232910E-1
4.594421390E-1,-1.047058105E-1,-7.856750488E-2,2.361145020E-1
4.619140630E-1,-8.872985840E-2,-6.471252441E-2,2.478332520E-1
4.643859870E-1,-6.954956055E-2,-5.299377441E-2,2.606048584E-1
4.668884280E-1,-5.357360840E-2,-4.341125488E-2,2.776489258E-1
4.693603520E-1,-3.120422363E-2,-2.743530273E-2,2.925720215E-1
4.718322760E-1,-1.416015625E-2,-1.464843750E-2,3.085479736E-1
4.743347170E-1,7.156372070E-3,-1.464843750E-2,3.245239258E-1
4.768066410E-1,2.206420898E-2,-1.145935059E-2,3.458251953E-1
4.793090820E-1,3.271484375E-2,-1.145935059E-2,3.660736084E-1
4.817810060E-1,4.656982422E-2,-1.890563965E-2,3.905639648E-1
4.842529300E-1,5.082702637E-2,-2.955627441E-2,4.150695801E-1
4.867553710E-1,4.869079590E-2,-4.660034180E-2,4.417114258E-1
4.892272950E-1,4.550170898E-2,-6.898498535E-2,4.683380127E-1
4.916992190E-1,4.124450684E-2,-9.454345703E-2,4.907073975E-1
4.942016600E-1,3.164672852E-2,-1.211700439E-1,5.162658691E-1
4.966735840E-1,1.780700684E-2,-1.573944092E-1,5.365142822E-1
4.991760260E-1,7.156372070E-3,-1.925506592E-1,5.578155518E-1
5.016479500E-1,-1.416015625E-2,-2.255706787E-1,5.833892822E-1
5.041198730E-1,-3.546142578E-2,-2.607269287E-1,6.036224365E-1
5.066223150E-1,-6.422424316E-2,-2.958831787E-1,6.174774170E-1
5.090942390E-1,-8.978271484E-2,-3.384857178E-1,6.398468018E-1
5.115661620E-1,-1.302642822E-1,-3.747100830E-1,6.643371582E-1
5.140686040E-1,-1.782073975E-1,-4.034729004E-1,6.867218018E-1
5.165405280E-1,-2.293395996E-1,-4.386291504E-1,7.058868408E-1
5.190124510E-1,-2.900543213E-1,-4.748382568E-1,7.261352539E-1
5.215148930E-1,-3.529052734E-1,-5.121307373E-1,7.410430908E-1
5.239868170E-1,-4.178924561E-1,-5.440826416E-1,7.580871582E-1
5.264892580E-1,-4.807434082E-1,-5.792388916E-1,7.719421387E-1
5.289611820E-1,-5.457305908E-1,-6.229095459E-1,7.793884277E-1
5.314331060E-1,-6.075134277E-1,-6.676635742E-1,7.868499756E-1
5.339355470E-1,-6.714172363E-1,-7.124023438E-1,7.943115234E-1
5.364074710E-1,-7.438659668E-1,-7.571411133E-1,7.996368408E-1
5.389099120E-1,-8.162994385E-1,-8.050689697E-1,7.996368408E-1
5.413818360E-1,-8.919372559E-1,-8.476867676E-1,7.985687256E-1
5.438537600E-1,-9.718322754E-1,-8.902893066E-1,7.964324951E-1
5.463562010E-1,-1.046401978E0,-9.339752197E-1,7.964324951E-1
5.488281250E-1,-1.120971680E0,-9.872283936E-1,7.953796387E-1
5.513000490E-1,-1.191268921E0,-1.049026489E0,8.017578125E-1
5.538024910E-1,-1.246673584E0,-1.104415894E0,8.113555908E-1
5.562744140E-1,-1.299926758E0,-1.161941528E0,8.262634277E-1
5.587768560E-1,-1.345733643E0,-1.238632202E0,8.433074951E-1
5.612487800E-1,-1.371307373E0,-1.314270020E0,8.592834473E-1
5.637207030E-1,-1.375564575E0,-1.367538452E0,8.763275146E-1
5.662231450E-1,-1.364913940E0,-1.409088135E0,8.880462646E-1
5.686950690E-1,-1.341476440E0,-1.448501587E0,9.029693604E-1
5.711669920E-1,-1.316970825E0,-1.486846924E0,9.178771973E-1
5.736694340E-1,-1.279693604E0,-1.503890991E0,9.274597168E-1
5.761413580E-1,-1.244537354E0,-1.499633789E0,9.359893799E-1
5.786437990E-1,-1.209381104E0,-1.482589722E0,9.445037842E-1
5.811157230E-1,-1.180618286E0,-1.455947876E0,9.541015625E-1
5.835876470E-1,-1.158248901E0,-1.431457520E0,9.594268799E-1
5.860900880E-1,-1.135879517E0,-1.390975952E0,9.647521973E-1
5.885620120E-1,-1.114578247E0,-1.335571289E0,9.668731689E-1
5.910339360E-1,-1.096466064E0,-1.285507202E0,9.690093994E-1
5.935363770E-1,-1.083679199E0,-1.231185913E0,9.743347168E-1
5.960083010E-1,-1.077285767E0,-1.167266846E0,9.754028320E-1
5.985107420E-1,-1.076217651E0,-1.096954346E0,9.817962646E-1
6.009826660E-1,-1.082611084E0,-1.027709961E0,9.796600342E-1
6.034545900E-1,-1.097534180E0,-9.584808350E-1,9.732666016E-1
6.059570320E-1,-1.117767334E0,-8.871002197E-1,9.711456299E-1
6.084289550E-1,-1.142272949E0,-8.093414307E-1,9.679412842E-1
6.109008790E-1,-1.162506104E0,-7.379608154E-1,9.530334473E-1
6.134033210E-1,-1.192337036E0,-6.719207764E-1,9.391784668E-1
6.158752440E-1,-1.220031738E0,-5.962829590E-1,9.242706299E-1
6.183471680E-1,-1.250930786E0,-5.206451416E-1,9.050903320E-1
6.208496100E-1,-1.281814575E0,-4.450225830E-1,8.880462646E-1
6.233215340E-1,-1.321243286E0,-3.811035156E-1,8.688812256E-1
6.258239750E-1,-1.362777710E0,-3.161163330E-1,8.518371582E-1
6.282958990E-1,-1.410720825E0,-2.511444092E-1,8.283996582E-1
6.307678230E-1,-1.456527710E0,-1.744384766E-1,8.060302734E-1
6.332702640E-1,-1.492736816E0,-9.667968750E-2,7.911071777E-1
6.357421880E-1,-1.518310547E0,-1.251220703E-2,7.804565430E-1
6.382446290E-1,-1.539611816E0,7.696533203E-2,7.772674561E-1
6.407165530E-1,-1.551330566E0,1.707000732E-1,7.623443604E-1
6.431884770E-1,-1.556655884E0,2.751007080E-1,7.612762451E-1
6.456909180E-1,-1.559860229E0,3.869476318E-1,7.793884277E-1
6.481628420E-1,-1.550262451E0,5.275726318E-1,7.868499756E-1
6.506347660E-1,-1.537490845E0,6.735076904E-1,7.943115234E-1
6.531372070E-1,-1.519378662E0,8.098602295E-1,8.070831299E-1
6.556091310E-1,-1.506591797E0,9.291687012E-1,8.230743408E-1
6.581115730E-1,-1.483154297E0,1.042098999E0,8.326568604E-1
6.605834960E-1,-1.463973999E0,1.161407471E0,8.465118408E-1
6.630554200E-1,-1.440551758E0,1.260467529E0,8.614196777E-1
6.655578620E-1,-1.414978027E0,1.340362549E0,8.742065430E-1
6.680297850E-1,-1.392608643E0,1.406417847E0,8.901824951E-1
6.705322270E-1,-1.367034912E0,1.462875366E0,9.029693604E-1
6.730041510E-1,-1.338287354E0,1.500152588E0,9.125518799E-1
6.754760750E-1,-1.310577393E0,1.517196655E0,9.210662842E-1
6.779785160E-1,-1.281814575E0,1.510803223E0,9.295959473E-1
6.804504400E-1,-1.254119873E0,1.485244751E0,9.402465820E-1
6.829223640E-1,-1.226425171E0,1.441574097E0,9.572906494E-1
6.854248050E-1,-1.204055786E0,1.377655029E0,9.690093994E-1
6.878967290E-1,-1.190200806E0,1.294555664E0,9.796600342E-1
6.903686530E-1,-1.185943604E0,1.191223145E0,9.892578125E-1
6.928710940E-1,-1.179550171E0,1.055938721E0,1.004165649E0
6.953430180E-1,-1.162506104E0,8.950805664E-1,1.030792236E0
6.978454590E-1,-1.148666382E0,7.363586426E-1,1.056365967E0
7.003173830E-1,-1.135879517E0,5.872192383E-1,1.079803467E0
7.027893070E-1,-1.119903564E0,4.263763428E-1,1.103240967E0
7.052917480E-1,-1.108184814E0,2.580566406E-1,1.125610352E0
7.077636720E-1,-1.092208862E0,8.654785156E-2,1.140518188E0
7.102355960E-1,-1.075164795E0,-7.963562012E-2,1.160751343E0
7.127380370E-1,-1.055984497E0,-2.490081787E-1,1.182067871E0
7.152099610E-1,-1.037872314E0,-4.215850830E-1,1.207626343E0
7.177124030E-1,-1.020828247E0,-5.909576416E-1,1.236389160E0
7.201843260E-1,-9.995269775E-1,-7.592620850E-1,1.264083862E0
7.226562500E-1,-9.792785645E-1,-9.169311523E-1,1.296051025E0
7.251586920E-1,-9.601135254E-1,-1.068191528E0,1.326934814E0
7.276306160E-1,-9.420013428E-1,-1.217330933E0,1.354629517E0
7.301025390E-1,-9.228210449E-1,-1.364334106E0,1.384460449E0
7.326049810E-1,-9.004516602E-1,-1.503890991E0,1.418548584E0
7.350769050E-1,-8.887329102E-1,-1.634918213E0,1.449447632E0
7.375488280E-1,-8.802185059E-1,-1.757415771E0,1.482467651E0
7.400512700E-1,-8.695678711E-1,-1.878860474E0,1.516555786E0
7.425231940E-1,-8.674316406E-1,-1.986450195E0,1.557037354E0
7.450256350E-1,-8.642425537E-1,-2.092987061E0,1.593261719E0
7.474975590E-1,-8.589172363E-1,-2.199508667E0,1.627349854E0
7.499694830E-1,-8.578491211E-1,-2.281524658E0,1.665695190E0
7.524719240E-1,-8.567810059E-1,-2.351837158E0,1.704040527E0
7.549438480E-1,-8.578491211E-1,-2.411499023E0,1.741333008E0
7.574157720E-1,-8.652954102E-1,-2.471145630E0,1.789260864E0
7.599182130E-1,-8.802185059E-1,-2.515884399E0,1.839324951E0
7.623901370E-1,-9.036560059E-1,-2.546783447E0,1.889404297E0
7.648925780E-1,-9.292144775E-1,-2.569152832E0,1.941589355E0
7.673645020E-1,-9.601135254E-1,-2.581939697E0,1.994857788E0
7.698364260E-1,-9.888763428E-1,-2.581939697E0,2.051315308E0
7.723388670E-1,-1.016571045E0,-2.564895630E0,2.101379395E0
7.748107910E-1,-1.045333862E0,-2.529739380E0,2.152511597E0
7.772827150E-1,-1.063446045E0,-2.487121582E0,2.201522827E0
7.797851570E-1,-1.080490112E0,-2.435989380E0,2.248397827E0
7.822570800E-1,-1.095397949E0,-2.374206543E0,2.295257568E0
7.847595220E-1,-1.108184814E0,-2.309234619E0,2.334686279E0
7.872314460E-1,-1.115646362E0,-2.243179321E0,2.373031616E0
7.897033690E-1,-1.119903564E0,-2.175003052E0,2.403915405E0
7.922058110E-1,-1.124160767E0,-2.102569580E0,2.434814453E0
7.946777350E-1,-1.123092651E0,-2.027999878E0,2.456115723E0
7.971496590E-1,-1.120971680E0,-1.959823608E0,2.471038818E0
7.996521000E-1,-1.117767334E0,-1.892715454E0,2.484878540E0
8.021240240E-1,-1.101791382E0,-1.820266724E0,2.494476318E0
8.046264650E-1,-1.089004517E0,-1.749969482E0,2.508316040E0
8.070983890E-1,-1.079421997E0,-1.672195435E0,2.520034790E0
8.095703130E-1,-1.063446045E0,-1.597625732E0,2.524291992E0
8.120727540E-1,-1.046401978E0,-1.519866943E0,2.528564453E0
8.145446780E-1,-1.031478882E0,-1.441040039E0,2.536010742E0
8.170471190E-1,-1.014434814E0,-1.363281250E0,2.539215088E0
8.195190430E-1,-9.963378906E-1,-1.280181885E0,2.541336060E0
8.219909670E-1,-9.814147949E-1,-1.198150635E0,2.545608521E0
8.244934090E-1,-9.622344971E-1,-1.118270874E0,2.545608521E0
8.269653320E-1,-9.483947754E-1,-1.035171509E0,2.542404175E0
8.294372560E-1,-9.313507080E-1,-9.488830566E-1,2.542404175E0
8.319396980E-1,-9.174957275E-1,-8.668670654E-1,2.541336060E0
8.344116210E-1,-8.993988037E-1,-7.795104980E-1,2.539215088E0
8.368835450E-1,-8.876800537E-1,-6.942901611E-1,2.534942627E0
8.393859870E-1,-8.791503906E-1,-6.048126221E-1,2.527496338E0
8.418579100E-1,-8.706359863E-1,-5.185241699E-1,2.526428223E0
8.443603520E-1,-8.716888428E-1,-4.333038330E-1,2.518966675E0
8.468322760E-1,-8.834075928E-1,-3.470153809E-1,2.521102905E0
8.493042000E-1,-9.025878906E-1,-2.767028809E-1,2.526428223E0
8.518066410E-1,-9.260253906E-1,-2.117309570E-1,2.534942627E0
8.542785650E-1,-9.579772949E-1,-1.467437744E-1,2.543472290E0
8.567504890E-1,-9.931335449E-1,-8.496093750E-2,2.556259155E0
8.592529300E-1,-1.034683228E0,-2.850341797E-2,2.572235107E0
8.617248540E-1,-1.082611084E0,2.262878418E-2,2.593536377E0
8.642272950E-1,-1.127365112E0,6.417846680E-2,2.612716675E0
8.666992190E-1,-1.175292969E0,1.046600342E-1,2.632949829E0
8.691711430E-1,-1.225357056E0,1.430053711E-1,2.654251099E0
8.716735840E-1,-1.273300171E0,1.728363037E-1,2.674499512E0
8.741455080E-1,-1.313781738E0,1.962738037E-1,2.697937012E0
8.766479500E-1,-1.358520508E0,2.069244385E-1,2.718170166E0
8.791198730E-1,-1.402191162E0,2.154541016E-1,2.739486694E0
8.815917970E-1,-1.440551758E0,2.197113037E-1,2.756530762E0
8.840942390E-1,-1.481018066E0,2.165069580E-1,2.777832031E0
8.865661620E-1,-1.516174316E0,2.186431885E-1,2.802337646E0
8.890380860E-1,-1.555587769E0,2.111816406E-1,2.823638916E0
8.915405280E-1,-1.589675903E0,1.898803711E-1,2.838546753E0
8.940124510E-1,-1.628036499E0,1.526031494E-1,2.853469849E0
8.965148930E-1,-1.663192749E0,1.014709473E-1,2.873703003E0
8.989868170E-1,-1.689819336E0,5.778503418E-2,2.896072388E0
9.014587410E-1,-1.721771240E0,1.197814941E-2,2.912048340E0
9.039611820E-1,-1.750534058E0,-3.276062012E-2,2.932296753E0
9.064331060E-1,-1.779296875E0,-8.602905273E-2,2.953598022E0
9.089050300E-1,-1.804870605E0,-1.531372070E-1,2.975967407E0
9.114074710E-1,-1.829360962E0,-2.191772461E-1,3.005798340E0
9.138793950E-1,-1.851730347E0,-2.937469482E-1,3.026031494E0
9.163513190E-1,-1.874114990E0,-3.619232178E-1,3.040954590E0
9.188537600E-1,-1.904998779E0,-4.055938721E-1,3.059051514E0
9.213256840E-1,-1.944412231E0,-4.418182373E-1,3.080368042E0
9.238281250E-1,-1.978500366E0,-4.918823242E-1,3.106994629E0
9.263000490E-1,-2.016860962E0,-5.632629395E-1,3.138946533E0
9.287719730E-1,-2.052001953E0,-6.367645264E-1,3.170913696E0
9.312744140E-1,-2.082901001E0,-6.974792480E-1,3.197540283E0
9.337463380E-1,-2.113800049E0,-7.539367676E-1,3.213516235E0
9.362182620E-1,-2.141494751E0,-8.199920654E-1,3.223114014E0
9.387207030E-1,-2.161727905E0,-8.785858154E-1,3.234832764E0
9.411926270E-1,-2.175582886E0,-9.360961914E-1,3.246551514E0
9.436950690E-1,-2.190490723E0,-9.808502197E-1,3.255065918E0
9.461669920E-1,-2.207534790E0,-1.020263672E0,3.262527466E0
9.486389160E-1,-2.214996338E0,-1.057540894E0,3.264648438E0
9.511413580E-1,-2.224578857E0,-1.101226807E0,3.267852783E0
9.536132820E-1,-2.230972290E0,-1.136367798E0,3.274246216E0
9.561157230E-1,-2.239486694E0,-1.169403076E0,3.276367188E0
9.585876470E-1,-2.250152588E0,-1.196029663E0,3.281692505E0
9.610595710E-1,-2.255477905E0,-1.225860596E0,3.284896851E0
9.635620120E-1,-2.260803223E0,-1.253555298E0,3.289154053E0
9.660339360E-1,-2.263992310E0,-1.289764404E0,3.291290283E0
9.685058600E-1,-2.262924194E0,-1.329193115E0,3.293411255E0
9.710083010E-1,-2.261871338E0,-1.372863770E0,3.294479370E0
9.734802250E-1,-2.257598877E0,-1.421859741E0,3.294479370E0
9.759826660E-1,-2.246948242E0,-1.474060059E0,3.297683716E0
9.784545900E-1,-2.239486694E0,-1.524124146E0,3.293411255E0
9.809265140E-1,-2.227783203E0,-1.578460693E0,3.290222168E0
9.834289550E-1,-2.214996338E0,-1.639175415E0,3.291290283E0
9.859008790E-1,-2.201141357E0,-1.690307617E0,3.290222168E0
9.883728030E-1,-2.188354492E0,-1.745697021E0,3.290222168E0
9.908752440E-1,-2.172378540E0,-1.802169800E0,3.291290283E0
9.933471680E-1,-2.154266357E0,-1.858627319E0,3.291290283E0
9.958496100E-1,-2.135101318E0,-1.917205811E0,3.292358398E0
9.983215340E-1,-2.116989136E0,-1.974731445E0,3.295547485E0
1.000793457E0,-2.092483521E0,-2.022674561E0,3.292358398E0
1.003295899E0,-2.074371338E0,-2.083389282E0,3.294479370E0
1.005767823E0,-2.053070068E0,-2.153701782E0,3.297683716E0
1.008239746E0,-2.023239136E0,-2.208023071E0,3.299804688E0
1.010742188E0,-1.988098145E0,-2.252777100E0,3.299804688E0
1.013214112E0,-1.950805664E0,-2.294311523E0,3.298736572E0
1.015716553E0,-1.906066895E0,-2.339050293E0,3.299804688E0
1.018188477E0,-1.857070923E0,-2.379531860E0,3.292358398E0
1.020660401E0,-1.801666260E0,-2.409362793E0,3.279571533E0
1.023162842E0,-1.744140625E0,-2.440261841E0,3.268920898E0
1.025634766E0,-1.682357788E0,-2.459426880E0,3.253997803E0
1.028137207E0,-1.621643066E0,-2.467956543E0,3.235885620E0
1.030609131E0,-1.561981201E0,-2.467956543E0,3.216720581E0
1.033081055E0,-1.500198364E0,-2.475402832E0,3.198608398E0
1.035583496E0,-1.439483643E0,-2.494583130E0,3.177307129E0
1.038055420E0,-1.379821777E0,-2.493515015E0,3.151733398E0
1.040527344E0,-1.321243286E0,-2.489257812E0,3.129364014E0
1.043029785E0,-1.262649536E0,-2.492462158E0,3.108062744E0
1.045501709E0,-1.208312988E0,-2.498840332E0,3.084625244E0
1.047973633E0,-1.160385132E0,-2.506301880E0,3.059051514E0
1.050476075E0,-1.108184814E0,-2.509506226E0,3.033493042E0
1.052947998E0,-1.067703247E0,-2.516952515E0,3.010055542E0
1.055450440E0,-1.026153564E0,-2.523345947E0,2.988754272E0
1.057922364E0,-9.909973145E-1,-2.522277832E0,2.964248657E0
1.060394287E0,-9.622344971E-1,-2.520156860E0,2.942947388E0
1.062896729E0,-9.356079102E-1,-2.507369995E0,2.923767090E0
1.065368653E0,-9.079132080E-1,-2.492462158E0,2.904602051E0
1.067840576E0,-8.887329102E-1,-2.474349976E0,2.885421753E0
1.070343018E0,-8.738250732E-1,-2.447708130E0,2.871566772E0
1.072814942E0,-8.631744385E-1,-2.417892456E0,2.856658936E0
1.075317383E0,-8.535919189E-1,-2.379531860E0,2.850265503E0
1.077789307E0,-8.525238037E-1,-2.335861206E0,2.839614868E0
1.080261231E0,-8.535919189E-1,-2.283660889E0,2.832153320E0
1.082763672E0,-8.567810059E-1,-2.222946167E0,2.825759888E0
1.085235596E0,-8.663635254E-1,-2.154769897E0,2.819381714E0
1.087707520E0,-8.770141602E-1,-2.065277100E0,2.809783936E0
1.090209961E0,-8.844757080E-1,-1.970474243E0,2.801269531E0
1.092681885E0,-8.961944580E-1,-1.862884521E0,2.793807983E0
1.095184326E0,-9.100494385E-1,-1.742507935E0,2.777832031E0
1.097656250E0,-9.270935059E-1,-1.614669800E0,2.765045166E0
1.100128174E0,-9.494628906E-1,-1.471923828E0,2.756530762E0
1.102630616E0,-9.675750732E-1,-1.327056885E0,2.746932983E0
1.105102539E0,-9.867401123E-1,-1.180053711E0,2.732025146E0
1.107574463E0,-1.010177612E0,-1.035171509E0,2.720306396E0
1.110076905E0,-1.033615112E0,-8.902893066E-1,2.710723877E0
1.112548828E0,-1.057052612E0,-7.571411133E-1,2.702194214E0
1.115020752E0,-1.087936401E0,-6.314392090E-1,2.691543579E0
1.117523194E0,-1.111373901E0,-5.153198242E-1,2.676635742E0
1.119995117E0,-1.139068604E0,-4.215850830E-1,2.664916992E0
1.122497559E0,-1.174224854E0,-3.299713135E-1,2.655319214E0
1.124969483E0,-1.205123901E0,-2.564697266E-1,2.641479492E0
1.127471924E0,-1.238143921E0,-1.968078613E-1,2.626556396E0
1.129943848E0,-1.274368286E0,-1.584625244E-1,2.611648560E0
1.132415772E0,-1.307388306E0,-1.318359375E-1,2.600997925E0
1.134887696E0,-1.342544556E0,-1.179809570E-1,2.591415405E0
1.137390137E0,-1.375564575E0,-1.115875244E-1,2.583953857E0
1.139862061E0,-1.411788940E0,-1.264953613E-1,2.574371338E0
1.142364502E0,-1.450134277E0,-1.520690918E-1,2.567977905E0
1.144836426E0,-1.481018066E0,-1.808319092E-1,2.559448242E0
1.147308350E0,-1.511917114E0,-2.095947266E-1,2.554122925E0
1.149810791E0,-1.537490845E0,-2.426147461E-1,2.550933838E0
1.152282715E0,-1.559860229E0,-2.862854004E-1,2.546661377E0
1.154785157E0,-1.582229614E0,-3.235778809E-1,2.545608521E0
1.157257080E0,-1.597137451E0,-3.502044678E-1,2.536010742E0
1.159729004E0,-1.604598999E0,-3.992156982E-1,2.522171021E0
1.162231446E0,-1.617385864E0,-4.663238525E-1,2.512573242E0
1.164703369E0,-1.622711182E0,-5.291748047E-1,2.505126953E0
1.167175293E0,-1.628036499E0,-5.760498047E-1,2.498733521E0
1.169677735E0,-1.632293701E0,-6.229095459E-1,2.493408203E0
1.172149659E0,-1.636550903E0,-6.751098633E-1,2.485946655E0
1.174652100E0,-1.638687134E0,-7.379608154E-1,2.479553223E0
1.177124024E0,-1.646148682E0,-7.986907959E-1,2.476364136E0
1.179595948E0,-1.646148682E0,-8.530120850E-1,2.472091675E0
1.182098389E0,-1.649337769E0,-9.073486328E-1,2.466766357E0
1.184570313E0,-1.652526855E0,-9.669952393E-1,2.458251953E0
1.187072754E0,-1.650405884E0,-1.027709961E0,2.453994751E0
1.189544678E0,-1.649337769E0,-1.087371826E0,2.451858521E0
1.192016602E0,-1.655731201E0,-1.141693115E0,2.447601318E0
1.194519043E0,-1.655731201E0,-1.198150635E0,2.443328857E0
1.196990967E0,-1.657852173E0,-1.251419067E0,2.443328857E0
1.199462891E0,-1.658920288E0,-1.301483154E0,2.445465088E0
1.201965332E0,-1.655731201E0,-1.350494385E0,2.446533203E0
1.204437256E0,-1.661056519E0,-1.401626587E0,2.450790405E0
1.206939698E0,-1.662124634E0,-1.442108154E0,2.453994751E0
1.209411621E0,-1.661056519E0,-1.484710693E0,2.458251953E0
1.211883545E0,-1.658920288E0,-1.523071289E0,2.465713501E0
1.214385987E0,-1.653594971E0,-1.558212280E0,2.477432251E0
1.216857910E0,-1.648269653E0,-1.592300415E0,2.480621338E0
1.219329834E0,-1.639755249E0,-1.624267578E0,2.483810425E0
1.221832276E0,-1.633361816E0,-1.655151367E0,2.492340088E0
1.224304200E0,-1.624832153E0,-1.690307617E0,2.497665405E0
1.226776123E0,-1.614181519E0,-1.723327637E0,2.498733521E0
1.229278565E0,-1.604598999E0,-1.751037598E0,2.497665405E0
1.231750489E0,-1.590744019E0,-1.779785156E0,2.499801636E0
1.234252930E0,-1.579025269E0,-1.808547974E0,2.502990723E0
1.236724854E0,-1.568374634E0,-1.834121704E0,2.501922607E0
1.239196778E0,-1.555587769E0,-1.862884521E0,2.500854492E0
1.241699219E0,-1.535354614E0,-1.889511108E0,2.495529175E0
1.244171143E0,-1.522567749E0,-1.912948608E0,2.489135742E0
1.246673584E0,-1.507659912E0,-1.938522339E0,2.485946655E0
1.249145508E0,-1.493804932E0,-1.958755493E0,2.482757568E0
1.251617432E0,-1.476760864E0,-1.973663330E0,2.476364136E0
1.254119873E0,-1.461853027E0,-1.989654541E0,2.466766357E0
1.256591797E0,-1.444808960E0,-2.002426147E0,2.458251953E0
1.259063721E0,-1.430953979E0,-2.014144897E0,2.445465088E0
1.261566162E0,-1.419235229E0,-2.027999878E0,2.435882568E0
1.264038086E0,-1.399002075E0,-2.038650513E0,2.427352905E0
1.266510010E0,-1.380889893E0,-2.038650513E0,2.420959473E0
1.269012451E0,-1.371307373E0,-2.030136108E0,2.413513184E0
1.271484375E0,-1.358520508E0,-2.030136108E0,2.402862549E0
1.273986817E0,-1.334014893E0,-2.029067993E0,2.394332886E0
1.276458741E0,-1.315902710E0,-2.020538330E0,2.381546021E0
1.278930664E0,-1.295669556E0,-2.000305176E0,2.369827271E0
1.281433106E0,-1.273300171E0,-1.971542358E0,2.350662231E0
1.283905030E0,-1.253051758E0,-1.940643311E0,2.333618164E0
1.286376953E0,-1.234954834E0,-1.912948608E0,2.320831299E0
1.288879395E0,-1.215774536E0,-1.879928589E0,2.303787231E0
1.291351319E0,-1.199798584E0,-1.841583252E0,2.283554077E0
1.293823242E0,-1.182754517E0,-1.804290771E0,2.267562866E0
1.296325684E0,-1.172103882E0,-1.771270752E0,2.249450684E0
1.298797608E0,-1.159317017E0,-1.739318848E0,2.228149414E0
1.301300049E0,-1.149734497E0,-1.712677002E0,2.206848145E0
1.303771973E0,-1.142272949E0,-1.686050415E0,2.183410645E0
1.306243897E0,-1.134811401E0,-1.655151367E0,2.166366577E0
1.308746338E0,-1.130554199E0,-1.627456665E0,2.146133423E0
1.311218262E0,-1.126296997E0,-1.597625732E0,2.123764038E0
1.313720703E0,-1.119903564E0,-1.565673828E0,2.099258423E0
1.316192627E0,-1.113510132E0,-1.532653809E0,2.072616577E0
1.318664551E0,-1.106048584E0,-1.497497559E0,2.043869019E0
1.321166992E0,-1.097534180E0,-1.465545654E0,2.018295288E0
1.323638916E0,-1.087936401E0,-1.426132202E0,1.988464355E0
1.326110840E0,-1.079421997E0,-1.386703491E0,1.960769653E0
1.328613282E0,-1.069839478E0,-1.352615356E0,1.930938721E0
1.331085205E0,-1.061309814E0,-1.311080933E0,1.901123047E0
1.333557129E0,-1.054916382E0,-1.271667480E0,1.874481201E0
1.336059571E0,-1.047470093E0,-1.238632202E0,1.843597412E0
1.338531494E0,-1.035751343E0,-1.201354980E0,1.810562134E0
1.341033936E0,-1.024032593E0,-1.165130615E0,1.777542114E0
1.343505860E0,-1.012313843E0,-1.135314941E0,1.749847412E0
1.345977784E0,-9.973907471E-1,-1.098022461E0,1.714691162E0
1.348480225E0,-9.824829102E-1,-1.055419922E0,1.683807373E0
1.350952149E0,-9.750213623E-1,-1.025588989E0,1.647583008E0
1.353454590E0,-9.622344971E-1,-1.010665894E0,1.607101440E0
1.355926514E0,-9.505310059E-1,-9.957580566E-1,1.567687988E0
1.358398438E0,-9.356079102E-1,-9.787139893E-1,1.528274536E0
1.360900879E0,-9.207000732E-1,-9.606018066E-1,1.488861084E0
1.363372803E0,-9.036560059E-1,-9.499511719E-1,1.450515747E0
1.365844727E0,-8.919372559E-1,-9.371643066E-1,1.413223267E0
1.368347168E0,-8.759613037E-1,-9.243927002E-1,1.375946045E0
1.370819092E0,-8.599700928E-1,-9.116058350E-1,1.336532593E0
1.373321534E0,-8.450622559E-1,-9.009552002E-1,1.294982910E0
1.375793457E0,-8.280181885E-1,-8.902893066E-1,1.263015747E0
1.378265381E0,-8.109741211E-1,-8.775177002E-1,1.227874756E0
1.380767823E0,-7.949981689E-1,-8.583374023E-1,1.186325073E0
1.383239746E0,-7.790222168E-1,-8.423614502E-1,1.151168823E0
1.385711670E0,-7.651672363E-1,-8.274536133E-1,1.120285034E0
1.388214112E0,-7.449340820E-1,-8.061370850E-1,1.084060669E0
1.390686035E0,-7.310791016E-1,-7.837677002E-1,1.054229736E0
1.393188477E0,-7.172241211E-1,-7.624664307E-1,1.024398804E0
1.395660401E0,-7.033843994E-1,-7.400970459E-1,9.913787842E-1
1.398132325E0,-6.863403320E-1,-7.219848633E-1,9.636840820E-1
1.400634766E0,-6.767578125E-1,-7.006835938E-1,9.295959473E-1
1.403106690E0,-6.629028320E-1,-6.793670654E-1,8.986968994E-1
1.405578614E0,-6.533203125E-1,-6.633911133E-1,8.699340820E-1
1.408081055E0,-6.405334473E-1,-6.420898438E-1,8.465118408E-1
1.410552979E0,-6.320037842E-1,-6.218566895E-1,8.177490234E-1
1.413055420E0,-6.277465820E-1,-5.994720459E-1,7.889862061E-1
1.415527344E0,-6.181640625E-1,-5.739135742E-1,7.634124756E-1
1.417999268E0,-6.117706299E-1,-5.536804199E-1,7.367858887E-1
1.420501709E0,-6.064453125E-1,-5.270385742E-1,7.090911865E-1
1.422973633E0,-5.947265625E-1,-5.004119873E-1,6.824493408E-1
1.425445557E0,-5.915222168E-1,-4.801635742E-1,6.558227539E-1
1.427947998E0,-5.894012451E-1,-4.524688721E-1,6.313171387E-1
1.430419922E0,-5.787506104E-1,-4.237060547E-1,6.015014648E-1
1.432922364E0,-5.638275146E-1,-4.002685547E-1,5.748596191E-1
1.435394287E0,-5.510559082E-1,-3.683166504E-1,5.493011475E-1
1.437866211E0,-5.393371582E-1,-3.480834961E-1,5.216064453E-1
1.440368653E0,-5.265502930E-1,-3.225097656E-1,4.928436279E-1
1.442840576E0,-5.116424561E-1,-3.022766113E-1,4.662017822E-1
1.445312500E0,-4.956512451E-1,-2.841644287E-1,4.374389648E-1
1.447814942E0,-4.796752930E-1,-2.681884766E-1,4.086761475E-1
1.450286866E0,-4.626312256E-1,-2.575225830E-1,3.788604736E-1
1.452789307E0,-4.434509277E-1,-2.500762939E-1,3.500976562E-1
1.455261231E0,-4.221496582E-1,-2.458190918E-1,3.213348389E-1
1.457733155E0,-3.987121582E-1,-2.436828613E-1,2.882995605E-1
1.460235596E0,-3.805999756E-1,-2.458190918E-1,2.616729736E-1
1.462707520E0,-3.507843018E-1,-2.521972656E-1,2.265167236E-1
1.465179444E0,-3.241424561E-1,-2.585906982E-1,1.988220215E-1
1.467681885E0,-2.975158691E-1,-2.681884766E-1,1.647338867E-1
1.470153809E0,-2.676849365E-1,-2.820281982E-1,1.295776367E-1
1.472656250E0,-2.378692627E-1,-2.916107178E-1,9.655761719E-2
1.475128174E0,-2.069702148E-1,-3.129272461E-1,6.246948242E-2
1.477600098E0,-1.718139648E-1,-3.363647461E-1,3.157043457E-2
1.480102539E0,-1.334686279E-1,-3.598022461E-1,-1.449584961E-3
1.482574463E0,-1.036376953E-1,-3.832244873E-1,-3.979492188E-2
1.485046387E0,-7.168579102E-2,-4.098663330E-1,-7.920837402E-2
1.487548828E0,-3.652954102E-2,-4.375610352E-1,-1.143646240E-1
1.490020752E0,3.952026367E-3,-4.684448242E-1,-1.527099609E-1
1.492492676E0,4.017639160E-2,-5.014801025E-1,-1.974487305E-1
1.494995117E0,7.426452637E-2,-5.302429199E-1,-2.400665283E-1
1.497467041E0,1.062164307E-1,-5.600585938E-1,-2.858734131E-1
1.499969483E0,1.360473633E-1,-5.920257568E-1,-3.306121826E-1
1.502441407E0,1.701354980E-1,-6.197204590E-1,-3.774871826E-1
1.504913330E0,2.010345459E-1,-6.452789307E-1,-4.307403564E-1
1.507415772E0,2.276611328E-1,-6.740417480E-1,-4.829406738E-1
1.509887696E0,2.532196045E-1,-6.889648438E-1,-5.351409912E-1
1.512390137E0,2.787933350E-1,-7.060089111E-1,-5.905303955E-1
1.514862061E0,3.022308350E-1,-7.166595459E-1,-6.470031738E-1
1.517333985E0,3.213958740E-1,-7.198486328E-1,-7.045135498E-1
1.519836426E0,3.363189697E-1,-7.209167480E-1,-7.588500977E-1
1.522308350E0,3.512268066E-1,-7.187957764E-1,-8.142395020E-1
1.524810791E0,3.650817871E-1,-7.081298828E-1,-8.717651367E-1
1.527282715E0,3.799896240E-1,-6.889648438E-1,-9.303588867E-1
1.529754639E0,3.863830566E-1,-6.633911133E-1,-9.868164062E-1
1.532257080E0,3.895721436E-1,-6.314392090E-1,-1.042205811E0
1.534729004E0,3.948974609E-1,-5.920257568E-1,-1.094406128E0
1.537200928E0,3.938446045E-1,-5.419616699E-1,-1.148742676E0
1.539703369E0,3.917083740E-1,-4.833679199E-1,-1.205200195E0
1.542175293E0,3.885192871E-1,-4.237060547E-1,-1.258453369E0
1.544647217E0,3.842468262E-1,-3.587341309E-1,-1.310653687E0
1.547149659E0,3.789215088E-1,-2.948150635E-1,-1.368179321E0
1.549621582E0,3.746643066E-1,-2.234344482E-1,-1.419311523E0
1.552124024E0,3.650817871E-1,-1.488800049E-1,-1.472579956E0
1.554595948E0,3.544311523E-1,-6.791687012E-2,-1.529037476E0
1.557067871E0,3.469696045E-1,1.518249512E-2,-1.581237793E0
1.559570313E0,3.384399414E-1,9.614562988E-2,-1.628097534E0
1.562042237E0,3.341827393E-1,1.813659668E-1,-1.679229736E0
1.564514160E0,3.277893066E-1,2.655181885E-1,-1.734634399E0
1.567016602E0,3.182067871E-1,3.507385254E-1,-1.783630371E0
1.569488526E0,3.128814697E-1,4.370269775E-1,-1.832641602E0
1.571990967E0,3.107452393E-1,5.222473145E-1,-1.880569458E0
1.574462891E0,3.064880371E-1,6.032104492E-1,-1.926376343E0
1.576934815E0,3.043518066E-1,6.852264404E-1,-1.975387573E0
1.579437256E0,3.043518066E-1,7.661895752E-1,-2.019058228E0
1.581909180E0,3.064880371E-1,8.460845947E-1,-2.065933228E0
1.584381104E0,3.064880371E-1,9.249114990E-1,-2.114929199E0
1.586883545E0,3.043518066E-1,9.962921143E-1,-2.157546997E0
1.589355469E0,3.022308350E-1,1.068725586E0,-2.201217651E0
1.591857910E0,3.096771240E-1,1.141159058E0,-2.243820190E0
1.594329834E0,3.160705566E-1,1.209335327E0,-2.285369873E0
1.596801758E0,3.203430176E-1,1.281784058E0,-2.325851440E0
1.599304200E0,3.224639893E-1,1.351013184E0,-2.364196777E0
1.601776123E0,3.277893066E-1,1.413864136E0,-2.404678345E0
1.604248047E0,3.331146240E-1,1.470321655E0,-2.435577393E0
1.606750489E0,3.405761719E-1,1.534240723E0,-2.468597412E0
1.609222412E0,3.469696045E-1,1.606689453E0,-2.505889893E0
1.611724854E0,3.565521240E-1,1.672729492E0,-2.547424316E0
1.614196778E0,3.672027588E-1,1.731323242E0,-2.587905884E0
1.616668701E0,3.735961914E-1,1.786712646E0,-2.621994019E0
1.619171143E0,3.863830566E-1,1.842102051E0,-2.653961182E0
1.621643067E0,3.991699219E-1,1.900695801E0,-2.689102173E0
1.624114991E0,4.119567871E-1,1.950759888E0,-2.721069336E0
1.626617432E0,4.247283936E-1,1.997634888E0,-2.751953125E0
1.629089356E0,4.375152588E-1,2.044509888E0,-2.781784058E0
1.631591797E0,4.556274414E-1,2.091384888E0,-2.816940308E0
1.634063721E0,4.747924805E-1,2.138244629E0,-2.845703125E0
1.636535645E0,4.907836914E-1,2.174468994E0,-2.875534058E0
1.639038086E0,5.120849609E-1,2.209625244E0,-2.906417847E0
1.641510010E0,5.355224609E-1,2.245834351E0,-2.931991577E0
1.644012451E0,5.589599609E-1,2.272476196E0,-2.960754395E0
1.646484375E0,5.813293457E-1,2.303359985E0,-2.989517212E0
1.648956299E0,6.090240479E-1,2.333190918E0,-3.014007568E0
1.651458741E0,6.335296631E-1,2.353439331E0,-3.039581299E0
1.653930664E0,6.612243652E-1,2.370483398E0,-3.064086914E0
1.656402588E0,6.867828369E-1,2.388580322E0,-3.083251953E0
1.658905030E0,7.144775391E-1,2.401367188E0,-3.102432251E0
1.661376953E0,7.411193848E-1,2.412017822E0,-3.119476318E0
1.663848877E0,7.741394043E-1,2.422668457E0,-3.136520386E0
1.666351319E0,8.029022217E-1,2.428009033E0,-3.152496338E0
1.668823242E0,8.305969238E-1,2.434387207E0,-3.165283203E0
1.671295166E0,8.529663086E-1,2.442916870E0,-3.175933838E0
1.673797608E0,8.806610107E-1,2.448242188E0,-3.180191040E0
1.676269532E0,9.094238281E-1,2.451431274E0,-3.184463501E0
1.678771973E0,9.360656738E-1,2.455703735E0,-3.190841675E0
1.681243897E0,9.626922607E-1,2.459960938E0,-3.191909790E0
1.683715821E0,9.882507324E-1,2.459960938E0,-3.192977905E0
1.686218262E0,1.013824463E0,2.464218140E0,-3.187652588E0
1.688690186E0,1.037261963E0,2.463150024E0,-3.182327271E0
1.691192627E0,1.058563232E0,2.466354370E0,-3.177001953E0
1.693664551E0,1.084136963E0,2.468475342E0,-3.171676636E0
1.696136475E0,1.108627319E0,2.468475342E0,-3.163146973E0
1.698638916E0,1.129943848E0,2.467422485E0,-3.148239136E0
1.701110840E0,1.152313232E0,2.467422485E0,-3.135452271E0
1.703582764E0,1.171478271E0,2.468475342E0,-3.122665405E0
1.706085205E0,1.192794800E0,2.465286255E0,-3.108825684E0
1.708557129E0,1.215164185E0,2.464218140E0,-3.091781616E0
1.711059571E0,1.232208252E0,2.461029053E0,-3.072601318E0
1.713531494E0,1.253509521E0,2.453567505E0,-3.052368164E0
1.716003418E0,1.269485474E0,2.446105957E0,-3.028930664E0
1.718505860E0,1.284393311E0,2.439712524E0,-3.005493164E0
1.720977784E0,1.301452637E0,2.428009033E0,-2.982055664E0
1.723449707E0,1.315292358E0,2.419479370E0,-2.957550049E0
1.725952149E0,1.327011108E0,2.405624390E0,-2.930923462E0
1.728424073E0,1.342987061E0,2.387527466E0,-2.902160645E0
1.730926514E0,1.353637695E0,2.371536255E0,-2.871261597E0
1.733398438E0,1.366424561E0,2.351303101E0,-2.839309692E0
1.735870362E0,1.378143311E0,2.334259033E0,-2.810546875E0
1.738372803E0,1.388793945E0,2.315078735E0,-2.777526855E0
1.740844727E0,1.395187378E0,2.292709351E0,-2.745559692E0
1.743316651E0,1.405838013E0,2.272476196E0,-2.714675903E0
1.745819092E0,1.411163330E0,2.260757446E0,-2.682708740E0
1.748291016E0,1.416488647E0,2.246902466E0,-2.648620605E0
1.750793457E0,1.419692993E0,2.226669312E0,-2.613479614E0
1.753265381E0,1.421813965E0,2.210693359E0,-2.576187134E0
1.755737305E0,1.430343628E0,2.203231812E0,-2.538909912E0
1.758239746E0,1.431411743E0,2.197906494E0,-2.500549316E0
1.760711670E0,1.432479858E0,2.195770264E0,-2.460083008E0
1.763183594E0,1.431411743E0,2.194702148E0,-2.415328979E0
1.765686035E0,1.435668945E0,2.195770264E0,-2.372726440E0
1.768157959E0,1.438858032E0,2.197906494E0,-2.325851440E0
1.770660401E0,1.435668945E0,2.203231812E0,-2.278976440E0
1.773132325E0,1.433532715E0,2.209625244E0,-2.227844238E0
1.775604248E0,1.429275513E0,2.217086792E0,-2.180969238E0
1.778106690E0,1.421813965E0,2.225601196E0,-2.127716064E0
1.780578614E0,1.413299561E0,2.234130859E0,-2.076583862E0
1.783050537E0,1.409042358E0,2.236251831E0,-2.022247314E0
1.785552979E0,1.403717041E0,2.242645264E0,-1.966857910E0
1.788024903E0,1.389862061E0,2.243713379E0,-1.913589478E0
1.790527344E0,1.377075195E0,2.242645264E0,-1.860336304E0
1.792999268E0,1.365356445E0,2.236251831E0,-1.808135986E0
1.795471192E0,1.349380493E0,2.222412109E0,-1.754867554E0
1.797973633E0,1.330200195E0,2.201095581E0,-1.702667236E0
1.800445557E0,1.311035156E0,2.177658081E0,-1.653671265E0
1.802917481E0,1.296112061E0,2.149963379E0,-1.603607178E0
1.805419922E0,1.283340454E0,2.116943359E0,-1.553543091E0
1.807891846E0,1.269485474E0,2.073272705E0,-1.501342773E0
1.810394287E0,1.257766724E0,2.034912109E0,-1.455535889E0
1.812866211E0,1.247116089E0,1.998703003E0,-1.409729004E0
1.815338135E0,1.231140137E0,1.953964233E0,-1.363922119E0
1.817840576E0,1.214096069E0,1.906021118E0,-1.319183350E0
1.820312500E0,1.200241089E0,1.850631714E0,-1.273376465E0
1.822784424E0,1.187454224E0,1.797363281E0,-1.229690552E0
1.825286866E0,1.175750732E0,1.741973877E0,-1.184951782E0
1.827758789E0,1.162963867E0,1.685516357E0,-1.144470215E0
1.830261231E0,1.150177002E0,1.619461060E0,-1.103988647E0
1.832733155E0,1.135269165E0,1.554489136E0,-1.066711426E0
1.835235596E0,1.128875732E0,1.491638184E0,-1.033691406E0
1.837707520E0,1.116088867E0,1.425582886E0,-9.932098389E-1
1.840179444E0,1.104370117E0,1.357406616E0,-9.559173584E-1
1.842651367E0,1.094787598E0,1.280715942E0,-9.250335693E-1
1.845153809E0,1.083068848E0,1.213607788E0,-8.920135498E-1
1.847625733E0,1.077743530E0,1.143295288E0,-8.611145020E-1
1.850128174E0,1.068145752E0,1.070861816E0,-8.302154541E-1
1.852600098E0,1.056427002E0,1.008010864E0,-7.971954346E-1
1.855072022E0,1.046844482E0,9.462127686E-1,-7.684326172E-1
1.857574463E0,1.037261963E0,8.854980469E-1,-7.407379150E-1
1.860046387E0,1.025543213E0,8.258514404E-1,-7.141113281E-1
1.862518311E0,1.018081665E0,7.683258057E-1,-6.874694824E-1
1.865020752E0,1.011688232E0,7.161254883E-1,-6.608428955E-1
1.867492676E0,1.003173828E0,6.649932861E-1,-6.331481934E-1
1.869995117E0,9.978485107E-1,6.106567383E-1,-6.065216064E-1
1.872467041E0,9.893188477E-1,5.595245361E-1,-5.809478760E-1
1.874938965E0,9.829254150E-1,5.073242188E-1,-5.575103760E-1
1.877441407E0,9.818725586E-1,4.551391602E-1,-5.308837891E-1
1.879913330E0,9.776000977E-1,4.008026123E-1,-5.063781738E-1
1.882385254E0,9.733428955E-1,3.486022949E-1,-4.829406738E-1
1.884887696E0,9.680175781E-1,2.953491211E-1,-4.563140869E-1
1.887359619E0,9.626922607E-1,2.484741211E-1,-4.371337891E-1
1.889862061E0,9.562988281E-1,1.984100342E-1,-4.136962891E-1
1.892333985E0,9.552307129E-1,1.472778320E-1,-3.913269043E-1
1.894836426E0,9.488372803E-1,9.614562988E-2,-3.721618652E-1
1.897308350E0,9.392547607E-1,4.927062988E-2,-3.508453369E-1
1.899780274E0,9.371185303E-1,6.652832031E-3,-3.306121826E-1
1.902252198E0,9.286041260E-1,-3.915405273E-2,-3.114318848E-1
1.904754639E0,9.168853760E-1,-8.389282227E-2,-2.879943848E-1
1.907226563E0,9.083557129E-1,-1.169128418E-1,-2.698974609E-1
1.909729004E0,9.009094238E-1,-1.446075439E-1,-2.496490479E-1
1.912200928E0,8.881225586E-1,-1.723022461E-1,-2.272796631E-1
1.914672852E0,8.795928955E-1,-1.936187744E-1,-2.038421631E-1
1.917175293E0,8.689422607E-1,-2.095947266E-1,-1.836090088E-1
1.919647217E0,8.572235107E-1,-2.202453613E-1,-1.601715088E-1
1.922119141E0,8.497772217E-1,-2.213134766E-1,-1.367340088E-1
1.924621582E0,8.380584717E-1,-2.255706787E-1,-1.122283936E-1
1.927093506E0,8.295288086E-1,-2.223815918E-1,-8.879089355E-2
1.929595948E0,8.188781738E-1,-2.138519287E-1,-6.216430664E-2
1.932067871E0,8.060913086E-1,-2.032012939E-1,-2.914428711E-2
1.934539795E0,7.965087891E-1,-1.946716309E-1,6.866455078E-4
1.937042237E0,7.826538086E-1,-1.893463135E-1,2.838134766E-2
1.939514160E0,7.720031738E-1,-1.765747070E-1,5.821228027E-2
1.941986084E0,7.634887695E-1,-1.584625244E-1,8.909606934E-2
1.944488526E0,7.549591064E-1,-1.531372070E-1,1.199951172E-1
1.946960450E0,7.411193848E-1,-1.531372070E-1,1.476898193E-1
1.949462891E0,7.325897217E-1,-1.552581787E-1,1.817779541E-1
1.951934815E0,7.123565674E-1,-1.584625244E-1,2.094726562E-1
1.954437256E0,6.931762695E-1,-1.573944092E-1,2.361145020E-1
1.956909180E0,6.761322021E-1,-1.488800049E-1,2.659301758E-1
1.959381104E0,6.548309326E-1,-1.435394287E-1,2.925720215E-1
1.961853028E0,6.303253174E-1,-1.478118896E-1,3.181304932E-1
1.964355469E0,6.047668457E-1,-1.499328613E-1,3.447723389E-1
1.966827393E0,5.887756348E-1,-1.296997070E-1,3.745880127E-1
1.969329834E0,5.664062500E-1,-1.137237549E-1,3.990936279E-1
1.971801758E0,5.376434326E-1,-1.009368896E-1,4.310455322E-1
1.974273682E0,5.205993652E-1,-7.110595703E-2,4.587554932E-1
1.976776123E0,5.014343262E-1,-2.317810059E-2,4.917755127E-1
1.979248047E0,4.833221436E-1,3.648376465E-2,5.173339844E-1
1.981719971E0,4.716033936E-1,1.057281494E-1,5.493011475E-1
1.984222412E0,4.694671631E-1,1.781616211E-1,5.919036865E-1
1.986694336E0,4.481658936E-1,2.207794189E-1,6.313171387E-1
1.989196778E0,4.375152588E-1,2.420806885E-1,6.579589844E-1
1.991668701E0,4.268646240E-1,2.580566406E-1,6.984405518E-1
1.994140625E0,4.162139893E-1,2.846832275E-1,7.335815430E-1
1.996643067E0,4.087524414E-1,3.059997559E-1,7.698059082E-1
1.999114991E0,3.981018066E-1,3.145141602E-1,8.038940430E-1
2.001586914E0,3.842468262E-1,3.102569580E-1,8.401184082E-1
2.004089356E0,3.714752197E-1,2.942810059E-1,8.710021973E-1
2.006561280E0,3.586883545E-1,2.729644775E-1,8.986968994E-1
2.009063721E0,3.459014893E-1,2.431488037E-1,9.221343994E-1
2.011535645E0,3.352508545E-1,2.005310059E-1,9.413146973E-1
2.014007569E0,3.203430176E-1,1.376800537E-1,9.594268799E-1
2.016510010E0,3.075561523E-1,6.098937988E-2,9.785919189E-1
2.018981934E0,2.883758545E-1,-2.850341797E-2,9.924468994E-1
2.021453858E0,2.692108154E-1,-1.233062744E-1,1.002029419E0
2.023956299E0,2.500305176E-1,-2.490081787E-1,1.018005371E0
2.026428223E0,2.255249023E-1,-4.013366699E-1,1.029724121E0
2.028930664E0,1.978302002E-1,-5.568695068E-1,1.041442871E0
2.031402588E0,1.648101807E-1,-6.921539307E-1,1.052093506E0
2.033874512E0,1.371154785E-1,-8.082733154E-1,1.059555054E0
2.036376953E0,1.083526611E-1,-9.297180176E-1,1.062759399E0
2.038848877E0,7.319641113E-2,-1.061798096E0,1.063812256E0
2.041320801E0,4.229736328E-2,-1.186447144E0,1.068084717E0
2.043823242E0,9.277343750E-3,-1.287643433E0,1.069137573E0
2.046295166E0,-2.160644531E-2,-1.384582520E0,1.070205688E0
2.048797608E0,-5.676269531E-2,-1.467666626E0,1.072341919E0
2.051269532E0,-9.191894531E-2,-1.528396606E0,1.076599121E0
2.053741455E0,-1.238861084E-1,-1.548629761E0,1.086196899E0
2.056243897E0,-1.558380127E-1,-1.539047241E0,1.090454102E0
2.058715821E0,-1.813964844E-1,-1.525192261E0,1.101104736E0
2.061187744E0,-2.005767822E-1,-1.518798828E0,1.112823486E0
2.063690186E0,-2.197570801E-1,-1.508148193E0,1.125610352E0
2.066162110E0,-2.389221191E-1,-1.478317261E0,1.140518188E0
2.068664551E0,-2.559661865E-1,-1.428253174E0,1.156494141E0
2.071136475E0,-2.772827148E-1,-1.378189087E0,1.176742554E0
2.073608399E0,-2.921905518E-1,-1.330245972E0,1.205505371E0
2.076110840E0,-3.081665039E-1,-1.288711548E0,1.231063843E0
2.078582764E0,-3.262786865E-1,-1.255676270E0,1.259826660E0
2.081054688E0,-3.401336670E-1,-1.215209961E0,1.289657593E0
2.083557129E0,-3.507843018E-1,-1.182174683E0,1.317352295E0
2.086029053E0,-3.678283691E-1,-1.158737183E0,1.340789795E0
2.088531494E0,-3.859405518E-1,-1.137435913E0,1.375946045E0
2.091003418E0,-4.040374756E-1,-1.121459961E0,1.401504517E0
2.093475342E0,-4.210815430E-1,-1.109741211E0,1.428146362E0
2.095977784E0,-4.349365234E-1,-1.094833374E0,1.455841064E0
2.098449707E0,-4.477233887E-1,-1.084167480E0,1.481399536E0
2.100921631E0,-4.626312256E-1,-1.083114624E0,1.508041382E0
2.103424073E0,-4.711608887E-1,-1.082046509E0,1.532531738E0
2.105895996E0,-4.775390625E-1,-1.079910278E0,1.557037354E0
2.108398438E0,-4.871368408E-1,-1.078842163E0,1.584732056E0
2.110870362E0,-4.977874756E-1,-1.086303711E0,1.610305786E0
2.113342285E0,-5.041809082E-1,-1.092697144E0,1.640121460E0
2.115844727E0,-5.148315430E-1,-1.094833374E0,1.668884277E0
2.118316651E0,-5.212249756E-1,-1.107604980E0,1.693389893E0
2.120788575E0,-5.308074951E-1,-1.121459961E0,1.722152710E0
2.123291016E0,-5.382690430E-1,-1.139572144E0,1.751983643E0
2.125762940E0,-5.478515625E-1,-1.160873413E0,1.781814575E0
2.128265381E0,-5.531768799E-1,-1.190704346E0,1.806304932E0
2.130737305E0,-5.670318604E-1,-1.223724365E0,1.833999634E0
2.133209229E0,-5.776824951E-1,-1.263137817E0,1.858505249E0
2.135711670E0,-5.894012451E-1,-1.299362183E0,1.880874634E0
2.138183594E0,-5.989837646E-1,-1.346237183E0,1.904312134E0
2.140655518E0,-6.064453125E-1,-1.393096924E0,1.924545288E0
2.143157959E0,-6.181640625E-1,-1.446365356E0,1.942657471E0
2.145629883E0,-6.245574951E-1,-1.500686646E0,1.959701538E0
2.148132325E0,-6.288146973E-1,-1.555023193E0,1.977813721E0
2.150604248E0,-6.383972168E-1,-1.614669800E0,1.992736816E0
2.153076172E0,-6.437225342E-1,-1.675399780E0,2.005508423E0
2.155578614E0,-6.511840820E-1,-1.737182617E0,2.019363403E0
2.158050537E0,-6.565093994E-1,-1.793640137E0,2.025756836E0
2.160552979E0,-6.607666016E-1,-1.849029541E0,2.035339355E0
2.163024903E0,-6.607666016E-1,-1.911880493E0,2.042800903E0
2.165496826E0,-6.597137451E-1,-1.968338013E0,2.048126221E0
2.167999268E0,-6.575775146E-1,-2.024810791E0,2.054519653E0
2.170471192E0,-6.533203125E-1,-2.074874878E0,2.055572510E0
2.172943116E0,-6.447906494E-1,-2.123870850E0,2.057708740E0
2.175445557E0,-6.383972168E-1,-2.170745850E0,2.057708740E0
2.177917481E0,-6.298828125E-1,-2.217620850E0,2.053451538E0
2.180389405E0,-6.202850342E-1,-2.262359619E0,2.045989990E0
2.182891846E0,-6.139068604E-1,-2.308166504E0,2.039596558E0
2.185363770E0,-6.000518799E-1,-2.343322754E0,2.034271240E0
2.187866211E0,-5.872650146E-1,-2.378463745E0,2.025756836E0
2.190338135E0,-5.744781494E-1,-2.415756226E0,2.015106201E0
2.192810059E0,-5.606384277E-1,-2.442382812E0,2.005508423E0
2.195312500E0,-5.446624756E-1,-2.466888428E0,1.990600586E0
2.197784424E0,-5.340118408E-1,-2.482864380E0,1.978881836E0
2.200256348E0,-5.190887451E-1,-2.492462158E0,1.965026855E0
2.202758789E0,-5.020446777E-1,-2.507369995E0,1.952255249E0
2.205261231E0,-4.935302734E-1,-2.512695312E0,1.941589355E0
2.207733155E0,-4.828796387E-1,-2.512695312E0,1.924545288E0
2.210205078E0,-4.743499756E-1,-2.515884399E0,1.908569336E0
2.212677002E0,-4.700927734E-1,-2.521209717E0,1.894729614E0
2.215179444E0,-4.647674561E-1,-2.524414062E0,1.883010864E0
2.217651367E0,-4.583740234E-1,-2.523345947E0,1.867034912E0
2.220123291E0,-4.551696777E-1,-2.525482178E0,1.853179932E0
2.222625733E0,-4.509124756E-1,-2.523345947E0,1.837203979E0
2.225097657E0,-4.551696777E-1,-2.518020630E0,1.819091797E0
2.227600098E0,-4.594421387E-1,-2.500976562E0,1.809509277E0
2.230072022E0,-4.594421387E-1,-2.470077515E0,1.799911499E0
2.232543946E0,-4.615631104E-1,-2.454101562E0,1.795654297E0
2.235046387E0,-4.668884277E-1,-2.455169678E0,1.796722412E0
2.237518311E0,-4.668884277E-1,-2.455169678E0,1.797790527E0
2.239990235E0,-4.722137451E-1,-2.474349976E0,1.807373047E0
2.242492676E0,-4.850006104E-1,-2.535064697E0,1.813766479E0
2.244964600E0,-4.860687256E-1,-2.602172852E0,1.793518066E0
2.247467041E0,-4.903259277E-1,-2.645858765E0,1.780746460E0
2.249938965E0,-5.105743408E-1,-2.666091919E0,1.759429932E0
2.252410889E0,-5.308074951E-1,-2.668228149E0,1.751983643E0
2.254913330E0,-5.627746582E-1,-2.679946899E0,1.754104614E0
2.257385254E0,-5.915222168E-1,-2.680999756E0,1.753051758E0
2.259887696E0,-6.043090820E-1,-2.652236938E0,1.764755249E0
2.262359619E0,-6.128387451E-1,-2.602172852E0,1.773284912E0
2.264831543E0,-6.139068604E-1,-2.565963745E0,1.785003662E0
2.267333985E0,-6.288146973E-1,-2.540390015E0,1.791397095E0
2.269805909E0,-6.394653320E-1,-2.512695312E0,1.808441162E0
2.272308350E0,-6.426696777E-1,-2.469024658E0,1.827606201E0
2.274780274E0,-6.522521973E-1,-2.414688110E0,1.848922729E0
2.277252198E0,-6.618347168E-1,-2.373138428E0,1.862762451E0
2.279754639E0,-6.682281494E-1,-2.341186523E0,1.884078979E0
2.282226563E0,-6.852722168E-1,-2.310287476E0,1.904312134E0
2.284698487E0,-7.033843994E-1,-2.252777100E0,1.920288086E0
2.287200928E0,-7.246856689E-1,-2.170745850E0,1.942657471E0
2.289672852E0,-7.523803711E-1,-2.092987061E0,1.968231201E0
2.292144776E0,-7.694244385E-1,-2.014144897E0,2.008712769E0
2.294647217E0,-7.758178711E-1,-1.933197021E0,2.041732788E0
2.297119141E0,-7.811431885E-1,-1.868209839E0,2.067291260E0
2.299621582E0,-7.800750732E-1,-1.812820435E0,2.087539673E0
2.302093506E0,-7.843475342E-1,-1.752090454E0,2.100326538E0
2.304565430E0,-8.035125732E-1,-1.655151367E0,2.112045288E0
2.307067871E0,-8.642425537E-1,-1.466598511E0,2.142929077E0
2.309539795E0,-8.621063232E-1,-1.207748413E0,2.214309692E0
2.312011719E0,-8.674316406E-1,-9.893646240E-1,2.260116577E0
2.314514160E0,-8.738250732E-1,-7.496795654E-1,2.304855347E0
2.316986084E0,-8.642425537E-1,-6.538085938E-1,2.368774414E0
2.319488526E0,-8.525238037E-1,-7.422180176E-1,2.395401001E0
2.321960450E0,-8.397369385E-1,-8.434295654E-1,2.427352905E0
2.324432373E0,-8.450622559E-1,-8.412933350E-1,2.446533203E0
2.326934815E0,-8.823394775E-1,-8.008117676E-1,2.464645386E0
2.329406739E0,-9.302825928E-1,-8.295745850E-1,2.473159790E0
2.331878662E0,-9.675750732E-1,-9.158630371E-1,2.479553223E0
2.334381104E0,-9.846191406E-1,-9.701843262E-1,2.480621338E0
2.336853028E0,-9.835510254E-1,-9.861755371E-1,2.483810425E0
2.339355469E0,-9.803466797E-1,-1.026657104E0,2.488082886E0
2.341827393E0,-9.750213623E-1,-1.129974365E0,2.493408203E0
2.344299317E0,-9.760894775E-1,-1.227981567E0,2.495529175E0
2.346801758E0,-9.803466797E-1,-1.259948730E0,2.495529175E0
2.349273682E0,-9.792785645E-1,-1.264205933E0,2.490203857E0
2.351776123E0,-9.707641602E-1,-1.286575317E0,2.489135742E0
2.354248047E0,-9.633026123E-1,-1.330245972E0,2.489135742E0
2.356719971E0,-9.505310059E-1,-1.353683472E0,2.490203857E0
2.359222412E0,-9.377441406E-1,-1.341964722E0,2.489135742E0
2.361694336E0,-9.196319580E-1,-1.333450317E0,2.490203857E0
2.364166260E0,-9.004516602E-1,-1.353683472E0,2.488082886E0
2.366668701E0,-8.844757080E-1,-1.371795654E0,2.483810425E0
2.369140625E0,-8.610382080E-1,-1.382446289E0,2.477432251E0
2.371612549E0,-8.408050537E-1,-1.396301270E0,2.468902588E0
2.374114991E0,-8.258819580E-1,-1.420791626E0,2.455047607E0
2.376586914E0,-8.099060059E-1,-1.459152222E0,2.442276001E0
2.379058838E0,-7.960662842E-1,-1.495361328E0,2.422027588E0
2.381561280E0,-7.800750732E-1,-1.524124146E0,2.397537231E0
2.384033203E0,-7.673034668E-1,-1.559280396E0,2.374099731E0
2.386535645E0,-7.587738037E-1,-1.604019165E0,2.344268799E0
2.389007569E0,-7.449340820E-1,-1.654098511E0,2.316574097E0
2.391479492E0,-7.364044189E-1,-1.696701050E0,2.286743164E0
2.393981934E0,-7.268218994E-1,-1.737182617E0,2.253723145E0
2.396453858E0,-7.140350342E-1,-1.776596069E0,2.221755981E0
2.398925782E0,-7.055206299E-1,-1.820266724E0,2.186614990E0
2.401428223E0,-6.959228516E-1,-1.859680176E0,2.150390625E0
2.403900147E0,-6.810150146E-1,-1.888442993E0,2.118423462E0
2.406402588E0,-6.703643799E-1,-1.915084839E0,2.084335327E0
2.408874512E0,-6.565093994E-1,-1.940643311E0,2.048126221E0
2.411346436E0,-6.416015625E-1,-1.959823608E0,2.012969971E0
2.413848877E0,-6.320037842E-1,-1.974731445E0,1.981018066E0
2.416320801E0,-6.192321777E-1,-1.988586426E0,1.952255249E0
2.418792725E0,-6.096343994E-1,-1.994979858E0,1.919219971E0
2.421295166E0,-6.032409668E-1,-1.993911743E0,1.887268066E0
2.423767090E0,-5.968627930E-1,-1.992843628E0,1.858505249E0
2.426269532E0,-5.883331299E-1,-1.985382080E0,1.831878662E0
2.428741455E0,-5.830078125E-1,-1.975799561E0,1.800979614E0
2.431213379E0,-5.798187256E-1,-1.956619263E0,1.772216797E0
2.433715821E0,-5.787506104E-1,-1.933197021E0,1.745590210E0
2.436187744E0,-5.723571777E-1,-1.906555176E0,1.721084595E0
2.438659668E0,-5.702209473E-1,-1.872467041E0,1.692321777E0
2.441162110E0,-5.638275146E-1,-1.833053589E0,1.665695190E0
2.443634034E0,-5.606384277E-1,-1.787246704E0,1.636932373E0
2.446136475E0,-5.563812256E-1,-1.741439819E0,1.611358643E0
2.448608399E0,-5.467834473E-1,-1.688186646E0,1.583663940E0
2.451080323E0,-5.414581299E-1,-1.630661011E0,1.559173584E0
2.453582764E0,-5.403900146E-1,-1.570999146E0,1.533599854E0
2.456054688E0,-5.361328125E-1,-1.509216309E0,1.508041382E0
2.458557129E0,-5.265502930E-1,-1.449554443E0,1.485656738E0
2.461029053E0,-5.233459473E-1,-1.390975952E0,1.462234497E0
2.463500977E0,-5.244140625E-1,-1.332382202E0,1.443054199E0
2.466003418E0,-5.190887451E-1,-1.270599365E0,1.418548584E0
2.468475342E0,-5.169677734E-1,-1.209869385E0,1.400436401E0
2.470947266E0,-5.116424561E-1,-1.152359009E0,1.375946045E0
2.473449707E0,-5.148315430E-1,-1.098022461E0,1.357833862E0
2.475921631E0,-5.158996582E-1,-1.054351807E0,1.338653564E0
2.478393555E0,-5.169677734E-1,-1.004287720E0,1.318420410E0
2.480895996E0,-5.148315430E-1,-9.584808350E-1,1.301376343E0
2.483367920E0,-5.158996582E-1,-9.137268066E-1,1.286453247E0
2.485870362E0,-5.190887451E-1,-8.711242676E-1,1.268356323E0
2.488342285E0,-5.201568604E-1,-8.306427002E-1,1.253433228E0
2.490814209E0,-5.222930908E-1,-7.901611328E-1,1.241714478E0
2.493316651E0,-5.212249756E-1,-7.486114502E-1,1.227874756E0
2.495788575E0,-5.222930908E-1,-7.060089111E-1,1.212951660E0
2.498260498E0,-5.233459473E-1,-6.665954590E-1,1.200180054E0
2.500762940E0,-5.244140625E-1,-6.271820068E-1,1.190582275E0
2.503234864E0,-5.222930908E-1,-5.930938721E-1,1.180999756E0
2.505737305E0,-5.265502930E-1,-5.579376221E-1,1.173538208E0
2.508209229E0,-5.265502930E-1,-5.227813721E-1,1.160751343E0
2.510681153E0,-5.254821777E-1,-4.950866699E-1,1.153305054E0
2.513183594E0,-5.297393799E-1,-4.652557373E-1,1.142654419E0
2.515655518E0,-5.350646973E-1,-4.396972656E-1,1.137329102E0
2.518127442E0,-5.372009277E-1,-4.247741699E-1,1.126663208E0
2.520629883E0,-5.393371582E-1,-4.066619873E-1,1.120285034E0
2.523101807E0,-5.467834473E-1,-3.938903809E-1,1.114944458E0
2.525604248E0,-5.499877930E-1,-3.789672852E-1,1.109619141E0
2.528076172E0,-5.542449951E-1,-3.715057373E-1,1.101104736E0
2.530548096E0,-5.595703125E-1,-3.651275635E-1,1.095779419E0
2.533050537E0,-5.712890625E-1,-3.598022461E-1,1.093643188E0
2.535522461E0,-5.787506104E-1,-3.523406982E-1,1.088317871E0
2.537994385E0,-5.861968994E-1,-3.502044678E-1,1.086196899E0
2.540496826E0,-5.915222168E-1,-3.480834961E-1,1.084060669E0
2.542968750E0,-5.947265625E-1,-3.480834961E-1,1.075531006E0
2.545471192E0,-6.011199951E-1,-3.438110352E-1,1.069137573E0
2.547943116E0,-6.053771973E-1,-3.459472656E-1,1.065948486E0
2.550415039E0,-6.107025146E-1,-3.512725830E-1,1.056365967E0
2.552917481E0,-6.139068604E-1,-3.555297852E-1,1.049972534E0
2.555389405E0,-6.139068604E-1,-3.683166504E-1,1.039321899E0
2.557861328E0,-6.128387451E-1,-3.789672852E-1,1.027603149E0
2.560363770E0,-6.149597168E-1,-3.928222656E-1,1.018005371E0
2.562835694E0,-6.149597168E-1,-4.109344482E-1,1.005233765E0
2.565338135E0,-6.139068604E-1,-4.226531982E-1,9.924468994E-1
2.567810059E0,-6.139068604E-1,-4.418182373E-1,9.817962646E-1
2.570281983E0,-6.160278320E-1,-4.609985352E-1,9.647521973E-1
2.572784424E0,-6.170959473E-1,-4.759063721E-1,9.508972168E-1
2.575256348E0,-6.160278320E-1,-4.929504395E-1,9.349212646E-1
2.577728272E0,-6.192321777E-1,-5.099945068E-1,9.114837646E-1
2.580230713E0,-6.170959473E-1,-5.217132568E-1,8.965759277E-1
2.582702637E0,-6.139068604E-1,-5.345001221E-1,8.816528320E-1
2.585205078E0,-6.117706299E-1,-5.440826416E-1,8.635559082E-1
2.587677002E0,-6.096343994E-1,-5.515441895E-1,8.443756104E-1
2.590148926E0,-6.117706299E-1,-5.526123047E-1,8.294677734E-1
2.592651367E0,-6.149597168E-1,-5.558013916E-1,8.124237061E-1
2.595123291E0,-6.128387451E-1,-5.579376221E-1,7.932434082E-1
2.597595215E0,-6.128387451E-1,-5.568695068E-1,7.761993408E-1
2.600097657E0,-6.139068604E-1,-5.558013916E-1,7.559509277E-1
2.602569580E0,-6.149597168E-1,-5.590057373E-1,7.389068604E-1
2.605072022E0,-6.149597168E-1,-5.579376221E-1,7.250671387E-1
2.607543946E0,-6.128387451E-1,-5.536804199E-1,7.069549561E-1
2.610015869E0,-6.128387451E-1,-5.494079590E-1,6.835174561E-1
2.612518311E0,-6.160278320E-1,-5.440826416E-1,6.664733887E-1
2.614990235E0,-6.149597168E-1,-5.408935547E-1,6.472930908E-1
2.617492676E0,-6.107025146E-1,-5.291748047E-1,6.291961670E-1
2.619964600E0,-6.085815430E-1,-5.206451416E-1,6.100158691E-1
2.622436524E0,-6.075134277E-1,-5.110626221E-1,5.929718018E-1
2.624938965E0,-6.032409668E-1,-5.025329590E-1,5.748596191E-1
2.627410889E0,-6.000518799E-1,-4.886932373E-1,5.503540039E-1
2.629882813E0,-5.989837646E-1,-4.759063721E-1,5.301208496E-1
2.632385254E0,-5.957946777E-1,-4.684448242E-1,5.109405518E-1
2.634857178E0,-5.925903320E-1,-4.546051025E-1,4.907073975E-1
2.637359619E0,-5.872650146E-1,-4.343566895E-1,4.715270996E-1
2.639831543E0,-5.840759277E-1,-4.183807373E-1,4.491577148E-1
2.642303467E0,-5.819396973E-1,-4.034729004E-1,4.267883301E-1
2.644805909E0,-5.755462646E-1,-3.811035156E-1,4.054870605E-1
2.647277832E0,-5.712890625E-1,-3.598022461E-1,3.809814453E-1
2.649749756E0,-5.648956299E-1,-3.416900635E-1,3.639373779E-1
2.652252198E0,-5.585021973E-1,-3.139953613E-1,3.404998779E-1
2.654724121E0,-5.585021973E-1,-2.884216309E-1,3.181304932E-1
2.657196045E0,-5.499877930E-1,-2.585906982E-1,3.021545410E-1
2.659698487E0,-5.521087646E-1,-2.362213135E-1,2.808532715E-1
2.662170410E0,-5.499877930E-1,-2.042694092E-1,2.574157715E-1
2.664672852E0,-5.446624756E-1,-1.648559570E-1,2.350463867E-1
2.667144776E0,-5.372009277E-1,-1.286315918E-1,2.158660889E-1
2.669616700E0,-5.329437256E-1,-9.454345703E-2,1.967010498E-1
2.672119141E0,-5.286865234E-1,-6.045532227E-2,1.764526367E-1
2.674591065E0,-5.190887451E-1,-2.423095703E-2,1.519470215E-1
2.677062989E0,-5.116424561E-1,5.584716797E-3,1.370391846E-1
2.679565430E0,-5.031127930E-1,4.074096680E-2,1.210632324E-1
2.682037354E0,-4.903259277E-1,7.164001465E-2,9.762573242E-2
2.684539795E0,-4.839324951E-1,9.933471680E-2,7.632446289E-2
2.687011719E0,-4.722137451E-1,1.270294189E-1,5.928039551E-2
2.689483643E0,-4.583740234E-1,1.451416016E-1,3.903198242E-2
2.691986084E0,-4.498443604E-1,1.621856689E-1,1.773071289E-2
2.694458008E0,-4.317474365E-1,1.728363037E-1,-3.570556641E-3
2.696929932E0,-4.168243408E-1,1.834869385E-1,-2.488708496E-2
2.699432373E0,-4.029846191E-1,1.845550537E-1,-4.618835449E-2
2.701904297E0,-3.891296387E-1,1.845550537E-1,-6.855773926E-2
2.704406739E0,-3.731536865E-1,1.792297363E-1,-8.453369141E-2
2.706878662E0,-3.550415039E-1,1.717681885E-1,-1.111755371E-1
2.709350586E0,-3.358612061E-1,1.589813232E-1,-1.335449219E-1
2.711853028E0,-3.177642822E-1,1.398162842E-1,-1.569671631E-1
2.714324951E0,-2.975158691E-1,1.217041016E-1,-1.804046631E-1
2.716796875E0,-2.804718018E-1,1.046600342E-1,-2.038421631E-1
2.719299317E0,-2.634277344E-1,8.229064941E-2,-2.262115479E-1
2.721771241E0,-2.453155518E-1,5.459594727E-2,-2.496490479E-1
2.724273682E0,-2.250823975E-1,3.755187988E-2,-2.720184326E-1
2.726745606E0,-2.005767822E-1,1.625061035E-2,-2.933349609E-1
2.729217530E0,-1.813964844E-1,-2.929687500E-3,-3.103790283E-1
2.731719971E0,-1.590270996E-1,-1.997375488E-2,-3.338012695E-1
2.734191895E0,-1.366577148E-1,-3.808593750E-2,-3.508453369E-1
2.736663819E0,-1.164245605E-1,-5.513000488E-2,-3.710937500E-1
2.739166260E0,-9.191894531E-2,-7.110595703E-2,-3.892059326E-1
2.741638184E0,-6.741333008E-2,-8.496093750E-2,-4.019775391E-1
2.744140625E0,-5.143737793E-2,-9.667968750E-2,-4.254150391E-1
2.746612549E0,-2.799987793E-2,-1.062622070E-1,-4.392700195E-1
2.749084473E0,-2.441406250E-3,-1.147918701E-1,-4.509887695E-1
2.751586914E0,1.780700684E-2,-1.179809570E-1,-4.627075195E-1
2.754058838E0,3.804016113E-2,-1.275634766E-1,-4.776153564E-1
2.756530762E0,5.722045898E-2,-1.328887939E-1,-4.914703369E-1
2.759033203E0,7.638549805E-2,-1.392822266E-1,-5.010528564E-1
2.761505127E0,9.237670898E-2,-1.424865723E-1,-5.127716064E-1
2.764007569E0,1.104736328E-1,-1.499328613E-1,-5.255584717E-1
2.766479492E0,1.275177002E-1,-1.552581787E-1,-5.308837891E-1
2.768951416E0,1.445617676E-1,-1.573944092E-1,-5.436706543E-1
2.771453858E0,1.552276611E-1,-1.542053223E-1,-5.511169434E-1
2.773925782E0,1.701354980E-1,-1.499328613E-1,-5.553894043E-1
2.776428223E0,1.861114502E-1,-1.424865723E-1,-5.639038086E-1
2.778900147E0,1.988983154E-1,-1.286315918E-1,-5.713653564E-1
2.781372071E0,2.116851807E-1,-1.222381592E-1,-5.809478760E-1
2.783874512E0,2.201995850E-1,-1.094512939E-1,-5.873413086E-1
2.786346436E0,2.319183350E-1,-9.240722656E-2,-5.948028564E-1
2.788818360E0,2.447052002E-1,-7.749938965E-2,-6.054534912E-1
2.791320801E0,2.553558350E-1,-6.364440918E-2,-6.118469238E-1
2.793792725E0,2.606811523E-1,-4.660034180E-2,-6.182403564E-1
2.796295166E0,2.649383545E-1,-2.850341797E-2,-6.310119629E-1
2.798767090E0,2.692108154E-1,-1.039123535E-2,-6.416625977E-1
2.801239014E0,2.692108154E-1,4.531860352E-3,-6.512603760E-1
2.803741455E0,2.755889893E-1,2.262878418E-2,-6.597747803E-1
2.806213379E0,2.777252197E-1,4.499816895E-2,-6.693725586E-1
2.808685303E0,2.777252197E-1,6.631469727E-2,-6.789550781E-1
2.811187744E0,2.777252197E-1,8.975219727E-2,-6.842803955E-1
2.813659668E0,2.777252197E-1,1.142425537E-1,-6.896057129E-1
2.816162110E0,2.777252197E-1,1.398162842E-1,-6.938629150E-1
2.818634034E0,2.798614502E-1,1.643218994E-1,-6.981353760E-1
2.821136475E0,2.862548828E-1,1.984100342E-1,-6.981353760E-1
2.823608399E0,2.894439697E-1,2.324981689E-1,-6.991882324E-1
2.826080323E0,2.979736328E-1,2.644500732E-1,-6.991882324E-1
2.828582764E0,3.107452393E-1,3.006744385E-1,-7.013244629E-1
2.831054688E0,3.256683350E-1,3.315582275E-1,-7.034606934E-1
2.833526612E0,3.416442871E-1,3.688507080E-1,-6.970672607E-1
2.835998535E0,3.640136719E-1,4.018707275E-1,-6.959991455E-1
2.838500977E0,3.853149414E-1,4.274291992E-1,-6.991882324E-1
2.840972901E0,4.055633545E-1,4.497985840E-1,-6.991882324E-1
2.843475342E0,4.300537109E-1,4.689788818E-1,-7.002563477E-1
2.845947266E0,4.534912109E-1,4.775085449E-1,-7.055816650E-1
2.848419190E0,4.854583740E-1,4.764404297E-1,-7.087860107E-1
2.850921631E0,5.142211914E-1,4.647216797E-1,-7.141113281E-1
2.853393555E0,5.440368652E-1,4.487457275E-1,-7.205047607E-1
2.855895996E0,5.727996826E-1,4.306335449E-1,-7.322235107E-1
2.858367920E0,6.015625000E-1,4.008026123E-1,-7.439422607E-1
2.860839844E0,6.324615479E-1,3.635253906E-1,-7.609863281E-1
2.863342285E0,6.633453369E-1,3.219757080E-1,-7.780303955E-1
2.865814209E0,6.963806152E-1,2.751007080E-1,-7.971954346E-1
2.868286133E0,7.230072021E-1,2.250366211E-1,-8.174438477E-1
2.870788575E0,7.517700195E-1,1.739044189E-1,-8.408813477E-1
2.873260498E0,7.805328369E-1,1.248931885E-1,-8.632507324E-1
2.875732422E0,8.050384521E-1,7.270812988E-2,-8.898773193E-1
2.878234864E0,8.316650391E-1,2.476501465E-2,-9.143829346E-1
2.880706787E0,8.572235107E-1,-2.423095703E-2,-9.420776367E-1
2.883209229E0,8.806610107E-1,-7.110595703E-2,-9.665679932E-1
2.885681153E0,9.073028564E-1,-1.137237549E-1,-9.974670410E-1
2.888153076E0,9.371185303E-1,-1.499328613E-1,-1.028366089E0
2.890655518E0,9.648284912E-1,-1.819000244E-1,-1.048599243E0
2.893127442E0,9.850616455E-1,-1.978759766E-1,-1.077362061E0
2.895629883E0,1.005294800E0,-1.840209961E-1,-1.114654541E0
2.898101807E0,1.013824463E0,-1.595306396E-1,-1.143402100E0
2.900573731E0,1.020217896E0,-1.478118896E-1,-1.168975830E0
2.903076172E0,1.035125732E0,-1.648559570E-1,-1.200927734E0
2.905548096E0,1.046844482E0,-1.733703613E-1,-1.231826782E0
2.908020020E0,1.054306030E0,-1.627197266E-1,-1.264846802E0
2.910522461E0,1.066024780E0,-1.350250244E-1,-1.302139282E0
2.912994385E0,1.068145752E0,-1.179809570E-1,-1.342620850E0
2.915496826E0,1.067092896E0,-1.126556396E-1,-1.379898071E0
2.917968750E0,1.067092896E0,-9.880065918E-2,-1.417175293E0
2.920440674E0,1.066024780E0,-7.217407227E-2,-1.453399658E0
2.922943116E0,1.059631348E0,-5.299377441E-2,-1.493881226E0
2.925415039E0,1.050048828E0,-4.234313965E-2,-1.523712158E0
2.927886963E0,1.042587280E0,-2.636718750E-2,-1.555664062E0
2.930389405E0,1.025543213E0,-1.251220703E-2,-1.584426880E0
2.932861328E0,1.014892578E0,1.304626465E-2,-1.618515015E0
2.935363770E0,1.006362915E0,3.648376465E-2,-1.651535034E0
2.937835694E0,9.957122803E-1,5.459594727E-2,-1.685623169E0
2.940307617E0,9.808044434E-1,8.122253418E-2,-1.707992554E0
2.942810059E0,9.712066650E-1,1.238403320E-1,-1.730377197E0
2.945281983E0,9.594879150E-1,1.632537842E-1,-1.765518188E0
2.947753907E0,9.467163086E-1,1.994628906E-1,-1.811325073E0
2.950256348E0,9.317932129E-1,2.410125732E-1,-1.848617554E0
2.952728272E0,9.211425781E-1,2.804260254E-1,-1.877380371E0
2.955200196E0,9.073028564E-1,3.209075928E-1,-1.910400391E0
2.957702637E0,9.019775391E-1,3.635253906E-1,-1.947677612E0
2.960174561E0,8.966522217E-1,4.103851318E-1,-1.982833862E0
2.962677002E0,8.881225586E-1,4.668426514E-1,-2.010528564E0
2.965148926E0,8.774719238E-1,5.190429688E-1,-2.039291382E0
2.967620850E0,8.700103760E-1,5.648498535E-1,-2.066986084E0
2.970123291E0,8.625488281E-1,6.063995361E-1,-2.092559814E0
2.972595215E0,8.540344238E-1,6.479492188E-1,-2.114929199E0
2.975097657E0,8.540344238E-1,6.841583252E-1,-2.139434814E0
2.977569580E0,8.561706543E-1,7.225189209E-1,-2.161804199E0
2.980041504E0,8.497772217E-1,7.597961426E-1,-2.184173584E0
2.982543946E0,8.540344238E-1,7.853698730E-1,-2.204406738E0
2.985015869E0,8.561706543E-1,8.056030273E-1,-2.226776123E0
2.987487793E0,8.582916260E-1,8.258514404E-1,-2.242767334E0
2.989990235E0,8.636169434E-1,8.375549316E-1,-2.259811401E0
2.992462159E0,8.710784912E-1,8.450164795E-1,-2.278976440E0
2.994964600E0,8.785400391E-1,8.482208252E-1,-2.292831421E0
2.997436524E0,8.870544434E-1,8.450164795E-1,-2.305618286E0
2.999908448E0,8.977050781E-1,8.375549316E-1,-2.319458008E0
3.002410889E0,9.094238281E-1,8.332977295E-1,-2.334381104E0
3.004882813E0,9.190216064E-1,8.205108643E-1,-2.347152710E0
3.007354737E0,9.360656738E-1,8.045349121E-1,-2.359939575E0
3.009857178E0,9.488372803E-1,7.874908447E-1,-2.370590210E0
3.012329102E0,9.605560303E-1,7.640533447E-1,-2.384445190E0
3.014801026E0,9.765319824E-1,7.416839600E-1,-2.396163940E0
3.017303467E0,9.871978760E-1,7.139892578E-1,-2.406814575E0
3.019775391E0,1.001037598E0,6.862945557E-1,-2.412139893E0
3.022277832E0,1.012756348E0,6.596679688E-1,-2.418533325E0
3.024749756E0,1.024475098E0,6.340942383E-1,-2.425994873E0
3.027221680E0,1.035125732E0,6.074676514E-1,-2.429183960E0
3.029724121E0,1.047912598E0,5.861663818E-1,-2.436645508E0
3.032196045E0,1.063888550E0,5.637817383E-1,-2.439834595E0
3.034667969E0,1.075607300E0,5.403594971E-1,-2.440902710E0
3.037170410E0,1.090530396E0,5.233154297E-1,-2.443038940E0
3.039642334E0,1.100112915E0,5.073242188E-1,-2.440902710E0
3.042144776E0,1.117156982E0,4.956054688E-1,-2.436645508E0
3.044616700E0,1.133132935E0,4.849548340E-1,-2.432373047E0
3.047088623E0,1.146987915E0,4.785614014E-1,-2.430252075E0
3.049591065E0,1.160827637E0,4.753723145E-1,-2.424926758E0
3.052062989E0,1.173614502E0,4.721832275E-1,-2.417465210E0
3.054565430E0,1.184265137E0,4.700469971E-1,-2.408950806E0
3.057037354E0,1.199172974E0,4.753723145E-1,-2.404678345E0
3.059509278E0,1.208770752E0,4.764404297E-1,-2.391906738E0
3.062011719E0,1.216217041E0,4.796295166E-1,-2.381240845E0
3.064483643E0,1.222610474E0,4.860229492E-1,-2.372726440E0
3.066955567E0,1.233261108E0,4.870910645E-1,-2.364196777E0
3.069458008E0,1.241790771E0,4.870910645E-1,-2.357803345E0
3.071929932E0,1.246047974E0,4.860229492E-1,-2.345031738E0
3.074401856E0,1.249252319E0,4.902801514E-1,-2.331176758E0
3.076904297E0,1.256698608E0,4.913482666E-1,-2.315200806E0
3.079376221E0,1.260971069E0,4.860229492E-1,-2.304550171E0
3.081878662E0,1.262023926E0,4.796295166E-1,-2.290695190E0
3.084350586E0,1.262023926E0,4.721832275E-1,-2.281112671E0
3.086822510E0,1.257766724E0,4.647216797E-1,-2.268325806E0
3.089324951E0,1.259902954E0,4.508666992E-1,-2.256607056E0
3.091788124E0,1.263092041E0,4.370269775E-1,-2.241699219E0
3.094290566E0,1.262023926E0,4.274291992E-1,-2.221450806E0
3.096762490E0,1.256698608E0,4.167785645E-1,-2.202285767E0
3.099234413E0,1.253509521E0,4.008026123E-1,-2.162872314E0
3.101736855E0,1.248184204E0,3.592529297E-1,-2.112792969E0
3.104208779E0,1.268417358E0,3.017272949E-1,-2.106414795E0
3.106680702E0,1.282272339E0,2.484741211E-1,-2.110671997E0
3.109183144E0,1.269485474E0,2.122497559E-1,-2.112792969E0
3.111655068E0,1.260971069E0,1.845550537E-1,-2.117065430E0
3.114157509E0,1.241790771E0,1.419372559E-1,-2.121322632E0
3.116629433E0,1.203445435E0,8.868408203E-2,-2.121322632E0
3.119101357E0,1.178939819E0,3.329467773E-2,-2.108535767E0
3.121603798E0,1.184265137E0,-2.929687500E-3,-2.087234497E0
3.124075722E0,1.182128906E0,-1.997375488E-2,-2.069122314E0
3.126547646E0,1.169357300E0,-3.276062012E-2,-2.052078247E0
3.129050087E0,1.161895752E0,-5.299377441E-2,-2.036102295E0
3.131522011E0,1.152313232E0,-6.898498535E-2,-2.016921997E0
3.133993935E0,1.144851685E0,-8.068847656E-2,-1.999877930E0
3.136496376E0,1.138458252E0,-8.815002441E-2,-1.984970093E0
3.138968300E0,1.127807617E0,-9.773254395E-2,-1.959396362E0
3.141470741E0,1.112899780E0,-1.233062744E-1,-1.923187256E0
3.143942665E0,1.104370117E0,-1.595306396E-1,-1.905075073E0
3.146414589E0,1.104370117E0,-1.893463135E-1,-1.892288208E0
3.148917031E0,1.092651367E0,-2.202453613E-1,-1.884826660E0
3.151388954E0,1.077743530E0,-2.468719482E-1,-1.879501343E0
3.153891396E0,1.055374146E0,-2.724456787E-1,-1.879501343E0
3.156363320E0,1.030868530E0,-3.001403809E-1,-1.873107910E0
3.158835243E0,1.011688232E0,-3.139953613E-1,-1.860336304E0
3.161337685E0,9.967803955E-1,-3.150482178E-1,-1.844360352E0
3.163809609E0,9.850616455E-1,-3.139953613E-1,-1.823043823E0
3.166281533E0,9.712066650E-1,-3.054656982E-1,-1.799606323E0
3.168783974E0,9.616241455E-1,-2.948150635E-1,-1.774047852E0
3.171255898E0,9.520416260E-1,-2.894897461E-1,-1.749542236E0
3.173758339E0,9.435119629E-1,-2.767028809E-1,-1.714385986E0
3.176230263E0,9.381866455E-1,-2.649841309E-1,-1.682434082E0
3.178702187E0,9.307403564E-1,-2.554016113E-1,-1.651535034E0
3.181204628E0,9.222106934E-1,-2.511444092E-1,-1.615325928E0
3.183676552E0,9.168853760E-1,-2.532653809E-1,-1.583358765E0
3.186148476E0,9.040985107E-1,-2.554016113E-1,-1.548202515E0
3.188650917E0,8.913116455E-1,-2.585906982E-1,-1.513061523E0
3.191122841E0,8.785400391E-1,-2.617950439E-1,-1.481094360E0
3.193625283E0,8.572235107E-1,-2.809600830E-1,-1.442749023E0
3.196097206E0,8.423156738E-1,-3.065338135E-1,-1.404403687E0
3.198569130E0,8.338012695E-1,-3.267669678E-1,-1.368179321E0
3.201071572E0,8.210144043E-1,-3.470153809E-1,-1.329833984E0
3.203543495E0,8.071594238E-1,-3.619232178E-1,-1.294677734E0
3.206015419E0,7.954406738E-1,-3.832244873E-1,-1.257385254E0
3.208517861E0,7.816009521E-1,-4.045410156E-1,-1.219039917E0
3.210989784E0,7.656097412E-1,-4.279785156E-1,-1.176437378E0
3.213461708E0,7.496337891E-1,-4.514007568E-1,-1.142349243E0
3.215964150E0,7.294006348E-1,-4.865570068E-1,-1.112518311E0
3.218436074E0,7.091522217E-1,-5.291748047E-1,-1.082687378E0
3.220938515E0,6.942443848E-1,-5.856323242E-1,-1.059249878E0
3.223410439E0,6.825256348E-1,-6.442260742E-1,-1.039016724E0
3.225882363E0,6.697387695E-1,-7.081298828E-1,-1.023040771E0
3.228384804E0,6.644134521E-1,-7.731170654E-1,-1.012374878E0
3.230856728E0,6.590881348E-1,-8.348999023E-1,-1.003860474E0
3.233328652E0,6.526947021E-1,-8.945617676E-1,-9.985351562E-1
3.235831093E0,6.420440674E-1,-9.563446045E-1,-9.974670410E-1
3.238303017E0,6.377868652E-1,-1.023452759E0,-9.996032715E-1
3.240805458E0,6.367187500E-1,-1.088439941E0,-9.996032715E-1
3.243277382E0,6.324615479E-1,-1.149154663E0,-1.007049561E0
3.245749306E0,6.250000000E-1,-1.209869385E0,-1.016647339E0
3.248251747E0,6.186065674E-1,-1.284439087E0,-1.021972656E0
3.250723671E0,6.154174805E-1,-1.362213135E0,-1.021972656E0
3.253195595E0,6.175384521E-1,-1.432510376E0,-1.034759521E0
3.255698036E0,6.111602783E-1,-1.506027222E0,-1.029418945E0
3.258169960E0,5.983734131E-1,-1.585906982E0,-1.035812378E0
3.260672402E0,5.994415283E-1,-1.665802002E0,-1.054992676E0
3.263144325E0,5.887756348E-1,-1.739318848E0,-1.072036743E0
3.265616249E0,5.610809326E-1,-1.789382935E0,-1.093338013E0
3.268118691E0,5.419158936E-1,-1.825592041E0,-1.118911743E0
3.270590615E0,5.067596436E-1,-1.853302002E0,-1.144470215E0
3.273093056E0,4.716033936E-1,-1.889511108E0,-1.189208984E0
3.275564980E0,4.364471436E-1,-1.926803589E0,-1.229690552E0
3.278036904E0,4.215393066E-1,-1.955566406E0,-1.219039917E0
3.280539345E0,4.279327393E-1,-1.959823608E0,-1.206253052E0
3.283011269E0,4.140777588E-1,-1.923599243E0,-1.190277100E0
3.285483193E0,4.023590088E-1,-1.883117676E0,-1.170043945E0
3.287985634E0,3.959655762E-1,-1.854354858E0,-1.145538330E0
3.290457558E0,3.789215088E-1,-1.829864502E0,-1.126358032E0
3.292959999E0,3.565521240E-1,-1.801101685E0,-1.107192993E0
3.295431923E0,3.427124023E-1,-1.762741089E0,-1.084823608E0
3.297903847E0,3.256683350E-1,-1.726531982E0,-1.056060791E0
3.300406288E0,3.022308350E-1,-1.699905396E0,-1.031555176E0
3.302878212E0,2.798614502E-1,-1.672195435E0,-1.000671387E0
3.305350136E0,2.574920654E-1,-1.645568848E0,-9.708404541E-1
3.307852577E0,2.393798828E-1,-1.617874146E0,-9.335479736E-1
3.310324501E0,2.212677002E-1,-1.597625732E0,-8.930664062E-1
3.312796425E0,2.074127197E-1,-1.583786011E0,-8.483276367E-1
3.315298866E0,1.988983154E-1,-1.568862915E0,-8.153076172E-1
3.317770790E0,1.871795654E-1,-1.542236328E0,-7.716369629E-1
3.320273232E0,1.775970459E-1,-1.507080078E0,-7.258300781E-1
3.322745156E0,1.679992676E-1,-1.464477539E0,-6.789550781E-1
3.325217079E0,1.509552002E-1,-1.421859741E0,-6.310119629E-1
3.327719521E0,1.435089111E-1,-1.370727539E0,-5.798797607E-1
3.330191445E0,1.328430176E-1,-1.306808472E0,-5.308837891E-1
3.332693886E0,1.200714111E-1,-1.237579346E0,-4.850769043E-1
3.335165810E0,1.083526611E-1,-1.170455933E0,-4.371337891E-1
3.337637734E0,1.019592285E-1,-1.092697144E0,-3.828125000E-1
3.340140175E0,9.770202637E-2,-1.008544922E0,-3.306121826E-1
3.342612099E0,9.342956543E-2,-9.179992676E-1,-2.816162109E-1
3.345084023E0,8.703613281E-2,-8.189239502E-1,-2.262115479E-1
3.347586464E0,8.065795898E-2,-7.166595459E-1,-1.686859131E-1
3.350058388E0,7.106018066E-2,-6.090698242E-1,-1.196899414E-1
3.352560829E0,5.615234375E-2,-5.068054199E-1,-6.962585449E-2
3.355032753E0,4.124450684E-2,-4.151916504E-1,-1.742553711E-2
3.357504677E0,2.738952637E-2,-3.257141113E-1,3.370666504E-2
3.360007118E0,1.034545898E-2,-2.436828613E-1,7.525634766E-2
3.362479042E0,-1.202392578E-2,-1.797637939E-1,1.136016846E-1
3.364981484E0,-3.759765625E-2,-1.233062744E-1,1.551513672E-1
3.367453408E0,-6.208801270E-2,-7.110595703E-2,1.913604736E-1
3.369925331E0,-8.445739746E-2,-3.062438965E-2,2.307891846E-1
3.372427773E0,-1.057739258E-1,2.395629883E-3,2.648773193E-1
3.374899697E0,-1.302642822E-1,3.115844727E-2,2.946929932E-1
3.377371620E0,-1.558380127E-1,5.352783203E-2,3.287811279E-1
3.379874062E0,-1.750183105E-1,6.950378418E-2,3.575439453E-1
3.382345986E0,-1.941833496E-1,7.803344727E-2,3.820495605E-1
3.384817909E0,-2.154846191E-1,7.589721680E-2,4.086761475E-1
3.387320351E0,-2.357330322E-1,7.270812988E-2,4.331817627E-1
3.389792275E0,-2.538452148E-1,6.204223633E-2,4.491577148E-1
3.392294716E0,-2.751464844E-1,4.820251465E-2,4.683380127E-1
3.394766640E0,-2.932586670E-1,2.583312988E-2,4.832458496E-1
3.397238564E0,-3.113708496E-1,4.531860352E-3,4.949645996E-1
3.399741005E0,-3.337402344E-1,-1.785278320E-2,5.056152344E-1
3.402212929E0,-3.561096191E-1,-4.660034180E-2,5.194702148E-1
3.404715370E0,-3.827362061E-1,-7.003784180E-2,5.301208496E-1
3.407187294E0,-4.083099365E-1,-9.135437012E-2,5.418395996E-1
3.409659218E0,-4.296112061E-1,-1.083984375E-1,5.471649170E-1
3.412161659E0,-4.562377930E-1,-1.190490723E-1,5.514221191E-1
3.414633583E0,-4.786071777E-1,-1.254425049E-1,5.588836670E-1
3.417105507E0,-4.977874756E-1,-1.264953613E-1,5.620727539E-1
3.419607949E0,-5.169677734E-1,-1.158447266E-1,5.631408691E-1
3.422079872E0,-5.393371582E-1,-1.009368896E-1,5.642089844E-1
3.424551796E0,-5.585021973E-1,-8.175659180E-2,5.642089844E-1
3.427054238E0,-5.798187256E-1,-5.513000488E-2,5.673980713E-1
3.429526161E0,-6.021881104E-1,-2.210998535E-2,5.706024170E-1
3.432028603E0,-6.202850342E-1,7.720947266E-3,5.706024170E-1
3.434500527E0,-6.373291016E-1,4.927062988E-2,5.716705322E-1
3.436972450E0,-6.554412842E-1,8.654785156E-2,5.748596191E-1
3.439474892E0,-6.724853516E-1,1.259613037E-1,5.769958496E-1
3.441946816E0,-6.916656494E-1,1.643218994E-1,5.801849365E-1
3.444418740E0,-7.076416016E-1,2.069244385E-1,5.801849365E-1
3.446921181E0,-7.204284668E-1,2.537994385E-1,5.801849365E-1
3.449393105E0,-7.374725342E-1,3.049316406E-1,5.844421387E-1
3.451865029E0,-7.523803711E-1,3.528594971E-1,5.876464844E-1
3.454367470E0,-7.673034668E-1,4.061279297E-1,5.929718018E-1
3.456839394E0,-7.811431885E-1,4.657897949E-1,5.982971191E-1
3.459341835E0,-7.928619385E-1,5.318298340E-1,6.078796387E-1
3.461813759E0,-8.003234863E-1,5.968170166E-1,6.153411865E-1
3.464285683E0,-8.152313232E-1,6.607208252E-1,6.228027344E-1
3.466788124E0,-8.195037842E-1,7.331695557E-1,6.323852539E-1
3.469260048E0,-8.205566406E-1,7.949523926E-1,6.419677734E-1
3.471762490E0,-8.269500732E-1,8.631286621E-1,6.568908691E-1
3.474234413E0,-8.322753906E-1,9.291687012E-1,6.707305908E-1
3.476706337E0,-8.312072754E-1,9.909667969E-1,6.856536865E-1
3.479208779E0,-8.248291016E-1,1.047424316E0,6.984405518E-1
3.481680702E0,-8.269500732E-1,1.098556519E0,7.176055908E-1
3.484152626E0,-8.248291016E-1,1.149688721E0,7.325286865E-1
3.486655068E0,-8.120422363E-1,1.192291260E0,7.527618408E-1
3.489126991E0,-8.024597168E-1,1.233840942E0,7.761993408E-1
3.491629433E0,-7.907409668E-1,1.272186279E0,7.964324951E-1
3.494101357E0,-7.768859863E-1,1.298828125E0,8.262634277E-1
3.496573281E0,-7.640991211E-1,1.323318481E0,8.571624756E-1
3.499075722E0,-7.534484863E-1,1.338241577E0,8.891143799E-1
3.501547646E0,-7.385406494E-1,1.349960327E0,9.242706299E-1
3.504019570E0,-7.214965820E-1,1.348892212E0,9.594268799E-1
3.506522011E0,-7.033843994E-1,1.336105347E0,9.977722168E-1
3.508993935E0,-6.842041016E-1,1.319061279E0,1.036117554E0
3.511496376E0,-6.639709473E-1,1.290298462E0,1.071273804E0
3.513968300E0,-6.447906494E-1,1.249816895E0,1.103240967E0
3.516440224E0,-6.277465820E-1,1.190170288E0,1.143707275E0
3.518942665E0,-6.139068604E-1,1.119857788E0,1.184188843E0
3.521414589E0,-6.032409668E-1,1.057006836E0,1.220413208E0
3.523886513E0,-5.840759277E-1,1.001617432E0,1.256637573E0
3.526388954E0,-5.638275146E-1,9.462127686E-1,1.290725708E0
3.528860878E0,-5.393371582E-1,8.823089600E-1,1.322677612E0
3.531363320E0,-5.180206299E-1,8.130645752E-1,1.358901978E0
3.533835243E0,-5.041809082E-1,7.491455078E-1,1.389785767E0
3.536307167E0,-4.860687256E-1,6.841583252E-1,1.419616699E0
3.538809609E0,-4.700927734E-1,6.095886230E-1,1.452636719E0
3.541281533E0,-4.551696777E-1,5.296936035E-1,1.476074219E0
3.543753456E0,-4.413299561E-1,4.423522949E-1,1.499511719E0
3.546255898E0,-4.264068604E-1,3.603210449E-1,1.525085449E0
3.548727822E0,-4.125671387E-1,2.783050537E-1,1.544250488E0
3.551230263E0,-3.987121582E-1,1.909484863E-1,1.560226440E0
3.553702187E0,-3.816680908E-1,1.078491211E-1,1.573013306E0
3.556174111E0,-3.646240234E-1,2.050781250E-2,1.586868286E0
3.558676552E0,-3.454589844E-1,-6.578063965E-2,1.597518921E0
3.561148476E0,-3.326721191E-1,-1.605834961E-1,1.604980469E0
3.563620400E0,-3.134918213E-1,-2.607269287E-1,1.609237671E0
3.566122841E0,-2.964477539E-1,-3.608551025E-1,1.609237671E0
3.568594765E0,-2.794036865E-1,-4.599304199E-1,1.601776123E0
3.571097206E0,-2.644958496E-1,-5.653839111E-1,1.590057373E0
3.573569130E0,-2.538452148E-1,-6.751098633E-1,1.575149536E0
3.576041054E0,-2.410583496E-1,-7.795104980E-1,1.561294556E0
3.578543495E0,-2.335968018E-1,-8.839111328E-1,1.535736084E0
3.581015419E0,-2.250823975E-1,-9.808502197E-1,1.511230469E0
3.583487343E0,-2.176208496E-1,-1.080978394E0,1.486724854E0
3.585989784E0,-2.080383301E-1,-1.175781250E0,1.462234497E0
3.588461708E0,-2.037811279E-1,-1.270599365E0,1.432403564E0
3.590933632E0,-1.984405518E-1,-1.348358154E0,1.407897949E0
3.593436074E0,-1.877899170E-1,-1.402694702E0,1.383392334E0
3.595907997E0,-1.803436279E-1,-1.437835693E0,1.362091064E0
3.598410439E0,-1.739501953E-1,-1.461273193E0,1.338653564E0
3.600882363E0,-1.696777344E-1,-1.475128174E0,1.316284180E0
3.603354286E0,-1.632995605E-1,-1.467666626E0,1.292846680E0
3.605856728E0,-1.579742432E-1,-1.450622559E0,1.272613525E0
3.608328652E0,-1.558380127E-1,-1.420791626E0,1.255569458E0
3.610831093E0,-1.505126953E-1,-1.386703491E0,1.233200073E0
3.613303017E0,-1.505126953E-1,-1.352615356E0,1.216156006E0
3.615774941E0,-1.505126953E-1,-1.302551270E0,1.195907593E0
3.618277382E0,-1.537017822E-1,-1.251419067E0,1.173538208E0
3.620749306E0,-1.579742432E-1,-1.202423096E0,1.156494141E0
3.623221230E0,-1.675567627E-1,-1.149154663E0,1.137329102E0
3.625723671E0,-1.803436279E-1,-1.094833374E0,1.117080688E0
3.628195595E0,-1.941833496E-1,-1.035171509E0,1.103240967E0
3.630698036E0,-2.122955322E-1,-9.755249023E-1,1.086196899E0
3.633169960E0,-2.282714844E-1,-9.105377197E-1,1.068084717E0
3.635641884E0,-2.442474365E-1,-8.466186523E-1,1.049972534E0
3.638144325E0,-2.623596191E-1,-7.826995850E-1,1.035049438E0
3.640616249E0,-2.847290039E-1,-7.155914307E-1,1.020141602E0
3.643118691E0,-3.028411865E-1,-6.474151611E-1,1.005233765E0
3.645590615E0,-3.209533691E-1,-5.717773438E-1,9.903106689E-1
3.648062538E0,-3.411865234E-1,-4.972076416E-1,9.764709473E-1
3.650564980E0,-3.646240234E-1,-4.237060547E-1,9.636840820E-1
3.653036904E0,-3.859405518E-1,-3.470153809E-1,9.530334473E-1
3.655508827E0,-4.083099365E-1,-2.649841309E-1,9.434509277E-1
3.658011269E0,-4.296112061E-1,-1.872253418E-1,9.317321777E-1
3.660483193E0,-4.445190430E-1,-1.126556396E-1,9.210662842E-1
3.662955116E0,-4.636993408E-1,-3.382873535E-2,9.146881104E-1
3.665457558E0,-4.786071777E-1,4.499816895E-2,9.072265625E-1
3.667929482E0,-4.967193604E-1,1.131896973E-1,9.061584473E-1
3.670431923E0,-5.105743408E-1,1.792297363E-1,9.040222168E-1
3.672903847E0,-5.190887451E-1,2.431488037E-1,9.050903320E-1
3.675375771E0,-5.318756104E-1,3.006744385E-1,8.997650146E-1
3.677878212E0,-5.489196777E-1,3.571319580E-1,9.008331299E-1
3.680350136E0,-5.617065430E-1,4.018707275E-1,8.997650146E-1
3.682822060E0,-5.755462646E-1,4.455413818E-1,8.955078125E-1
3.685324501E0,-5.883331299E-1,4.838867188E-1,8.976440430E-1
3.687796425E0,-6.021881104E-1,5.179901123E-1,8.997650146E-1
3.690298866E0,-6.149597168E-1,5.467376709E-1,8.965759277E-1
3.692770790E0,-6.266784668E-1,5.691223145E-1,8.997650146E-1
3.695242714E0,-6.341400146E-1,5.840301514E-1,9.040222168E-1
3.697745156E0,-6.458587646E-1,6.010742188E-1,9.082946777E-1
3.700217079E0,-6.533203125E-1,6.127929688E-1,9.157409668E-1
3.702689003E0,-6.575775146E-1,6.213073730E-1,9.253387451E-1
3.705191445E0,-6.629028320E-1,6.319732666E-1,9.349212646E-1
3.707663368E0,-6.692962646E-1,6.330261230E-1,9.434509277E-1
3.710165810E0,-6.682281494E-1,6.330261230E-1,9.541015625E-1
3.712637734E0,-6.724853516E-1,6.351623535E-1,9.658203125E-1
3.715109658E0,-6.703643799E-1,6.298370361E-1,9.743347168E-1
3.717612099E0,-6.671600342E-1,6.245117188E-1,9.860534668E-1
3.720084023E0,-6.629028320E-1,6.159820557E-1,9.945831299E-1
3.722555947E0,-6.629028320E-1,6.010742188E-1,1.007354736E0
3.725058388E0,-6.618347168E-1,5.861663818E-1,1.016952515E0
3.727530312E0,-6.597137451E-1,5.691223145E-1,1.028671265E0
3.730032753E0,-6.607666016E-1,5.520782471E-1,1.042510986E0
3.732504677E0,-6.565093994E-1,5.350341797E-1,1.052093506E0
3.734976601E0,-6.565093994E-1,5.211791992E-1,1.064880371E0
3.737479042E0,-6.533203125E-1,4.998779297E-1,1.078735352E0
3.739950966E0,-6.533203125E-1,4.775085449E-1,1.089385986E0
3.742422890E0,-6.522521973E-1,4.647216797E-1,1.097900391E0
3.744925331E0,-6.522521973E-1,4.487457275E-1,1.112823486E0
3.747397255E0,-6.458587646E-1,4.327545166E-1,1.124542236E0
3.749899697E0,-6.437225342E-1,4.167785645E-1,1.134124756E0
3.752371620E0,-6.373291016E-1,4.018707275E-1,1.143707275E0
3.754843544E0,-6.330718994E-1,4.008026123E-1,1.161819458E0
3.757345986E0,-6.298828125E-1,4.008026123E-1,1.168212891E0
3.759817909E0,-6.224212646E-1,3.986663818E-1,1.170349121E0
3.762289833E0,-6.170959473E-1,3.901519775E-1,1.177795410E0
3.764792275E0,-6.085815430E-1,3.858947754E-1,1.177795410E0
3.767264199E0,-6.021881104E-1,3.848266602E-1,1.182067871E0
3.769766640E0,-5.947265625E-1,3.869476318E-1,1.184188843E0
3.772238564E0,-5.883331299E-1,3.901519775E-1,1.182067871E0
3.774710488E0,-5.830078125E-1,3.869476318E-1,1.179931641E0
3.777212929E0,-5.808715820E-1,3.816223145E-1,1.173538208E0
3.779684853E0,-5.787506104E-1,3.784332275E-1,1.163955688E0
3.782156777E0,-5.734252930E-1,3.720397949E-1,1.158630371E0
3.784659218E0,-5.702209473E-1,3.592529297E-1,1.154373169E0
3.787131142E0,-5.638275146E-1,3.507385254E-1,1.146911621E0
3.789633583E0,-5.638275146E-1,3.454132080E-1,1.139450073E0
3.792105507E0,-5.606384277E-1,3.326263428E-1,1.126663208E0
3.794577431E0,-5.553131104E-1,3.230438232E-1,1.114944458E0
3.797079872E0,-5.553131104E-1,3.113250732E-1,1.106430054E0
3.799551796E0,-5.531768799E-1,3.006744385E-1,1.094711304E0
3.802023720E0,-5.510559082E-1,2.964019775E-1,1.085128784E0
3.804526161E0,-5.499877930E-1,2.910766602E-1,1.076599121E0
3.806998085E0,-5.489196777E-1,2.910766602E-1,1.063812256E0
3.809500527E0,-5.478515625E-1,2.900238037E-1,1.053161621E0
3.811972450E0,-5.382690430E-1,2.878875732E-1,1.042510986E0
3.814474892E0,-5.350646973E-1,2.868194580E-1,1.030792236E0
3.816946816E0,-5.308074951E-1,2.910766602E-1,1.023345947E0
3.819418740E0,-5.254821777E-1,2.985382080E-1,1.011627197E0
3.821890663E0,-5.254821777E-1,3.059997559E-1,1.000961304E0
3.824393105E0,-5.212249756E-1,3.134460449E-1,9.924468994E-1
3.826865029E0,-5.222930908E-1,3.209075928E-1,9.860534668E-1
3.829367470E0,-5.190887451E-1,3.358154297E-1,9.732666016E-1
3.831839394E0,-5.180206299E-1,3.507385254E-1,9.711456299E-1
3.834311318E0,-5.201568604E-1,3.720397949E-1,9.668731689E-1
3.836813759E0,-5.212249756E-1,3.922882080E-1,9.583587646E-1
3.839285683E0,-5.212249756E-1,4.114532471E-1,9.541015625E-1
3.841757607E0,-5.233459473E-1,4.317016602E-1,9.551544189E-1
3.844260048E0,-5.276184082E-1,4.604644775E-1,9.551544189E-1
3.846731972E0,-5.308074951E-1,4.892272949E-1,9.541015625E-1
3.849234413E0,-5.361328125E-1,5.190429688E-1,9.615478516E-1
3.851706337E0,-5.414581299E-1,5.541992188E-1,9.668731689E-1
3.854178261E0,-5.467834473E-1,5.957489014E-1,9.668731689E-1
3.856680702E0,-5.510559082E-1,6.340942383E-1,9.754028320E-1
3.859152626E0,-5.542449951E-1,6.703186035E-1,9.796600342E-1
3.861624550E0,-5.553131104E-1,7.150573730E-1,9.871215820E-1
3.864126991E0,-5.585021973E-1,7.566070557E-1,9.945831299E-1
3.866598915E0,-5.606384277E-1,7.992095947E-1,9.967041016E-1
3.869101357E0,-5.702209473E-1,8.396911621E-1,1.003097534E0
3.871573281E0,-5.744781494E-1,8.759155273E-1,1.010559082E0
3.874045204E0,-5.808715820E-1,9.131927490E-1,1.020141602E0
3.876547646E0,-5.872650146E-1,9.408874512E-1,1.025466919E0
3.879019570E0,-5.915222168E-1,9.643249512E-1,1.040390015E0
3.881491493E0,-5.979156494E-1,9.856414795E-1,1.046768188E0
3.883993935E0,-6.096343994E-1,1.006942749E0,1.054229736E0
3.886465859E0,-6.160278320E-1,1.018661499E0,1.068084717E0
3.888968300E0,-6.256256104E-1,1.023986816E0,1.074478149E0
3.891440224E0,-6.394653320E-1,1.018661499E0,1.082992554E0
3.893912148E0,-6.501159668E-1,1.002685547E0,1.088317871E0
3.896414589E0,-6.607666016E-1,9.835052490E-1,1.092575073E0
3.898886513E0,-6.724853516E-1,9.568786621E-1,1.098968506E0
3.901358437E0,-6.767578125E-1,9.259796143E-1,1.100036621E0
3.903860878E0,-6.842041016E-1,8.887023926E-1,1.100036621E0
3.906332802E0,-6.916656494E-1,8.514099121E-1,1.101104736E0
3.908835243E0,-6.991271973E-1,8.066711426E-1,1.101104736E0
3.911307167E0,-7.055206299E-1,7.630004883E-1,1.098968506E0
3.913779091E0,-7.108459473E-1,7.203826904E-1,1.089385986E0
3.916281533E0,-7.108459473E-1,6.703186035E-1,1.087249756E0
3.918753456E0,-7.140350342E-1,6.181182861E-1,1.082992554E0
3.921255898E0,-7.161712646E-1,5.669860840E-1,1.075531006E0
3.923727822E0,-7.140350342E-1,5.147857666E-1,1.068084717E0
3.926199745E0,-7.193603516E-1,4.657897949E-1,1.058486938E0
3.928702187E0,-7.204284668E-1,4.167785645E-1,1.051040649E0
3.931174111E0,-7.214965820E-1,3.635253906E-1,1.044647217E0
3.933646034E0,-7.257537842E-1,3.123931885E-1,1.031860352E0
3.936148476E0,-7.236175537E-1,2.665863037E-1,1.021209717E0
3.938620400E0,-7.214965820E-1,2.186431885E-1,1.014816284E0
3.941092324E0,-7.151031494E-1,1.781616211E-1,9.999084473E-1
3.943594765E0,-7.118988037E-1,1.398162842E-1,9.881896973E-1
3.946066689E0,-7.065734863E-1,1.110534668E-1,9.764709473E-1
3.948569130E0,-7.001800537E-1,8.654785156E-2,9.668731689E-1
3.951041054E0,-6.874084473E-1,6.631469727E-2,9.519653320E-1
3.953512978E0,-6.778106689E-1,4.820251465E-2,9.423828125E-1
3.956015419E0,-6.714172363E-1,3.648376465E-2,9.306640625E-1
3.958487343E0,-6.629028320E-1,2.476501465E-2,9.221343994E-1
3.960959267E0,-6.511840820E-1,1.943969727E-2,9.082946777E-1
3.963461708E0,-6.416015625E-1,1.091003418E-2,8.965759277E-1
3.965933632E0,-6.320037842E-1,5.584716797E-3,8.827209473E-1
3.968436074E0,-6.234893799E-1,2.593994141E-4,8.720703125E-1
3.970907997E0,-6.149597168E-1,-5.065917969E-3,8.624877930E-1
3.973379921E0,-6.043090820E-1,-7.186889648E-3,8.497009277E-1
3.975882363E0,-5.936584473E-1,-1.571655273E-2,8.390502930E-1
3.978354286E0,-5.872650146E-1,-2.743530273E-2,8.273315430E-1
3.980826210E0,-5.787506104E-1,-3.382873535E-2,8.145446777E-1
3.983328652E0,-5.691528320E-1,-4.980468750E-2,7.996368408E-1
3.985800575E0,-5.606384277E-1,-6.471252441E-2,7.879180908E-1
3.988303017E0,-5.542449951E-1,-7.536315918E-2,7.761993408E-1
3.990774941E0,-5.414581299E-1,-8.602905273E-2,7.634124756E-1
3.993246865E0,-5.340118408E-1,-9.773254395E-2,7.506256104E-1
3.995749306E0,-5.286865234E-1,-1.158447266E-1,7.410430908E-1
3.998221230E0,-5.190887451E-1,-1.275634766E-1,7.293243408E-1
4.000723671E0,-5.105743408E-1,-1.414184570E-1,7.165374756E-1
4.003195595E0,-5.020446777E-1,-1.552581787E-1,6.994934082E-1
4.005667519E0,-4.913940430E-1,-1.659240723E-1,6.909790039E-1
4.008169960E0,-4.828796387E-1,-1.776275635E-1,6.739349365E-1
4.010641884E0,-4.722137451E-1,-1.872253418E-1,6.590118408E-1
4.013113808E0,-4.626312256E-1,-1.978759766E-1,6.472930908E-1
4.015616249E0,-4.519805908E-1,-2.074584961E-1,6.345214844E-1
4.018088173E0,-4.466552734E-1,-2.117309570E-1,6.206665039E-1
4.020560097E0,-4.391937256E-1,-2.127838135E-1,6.057586670E-1
4.023062538E0,-4.296112061E-1,-2.138519287E-1,5.940399170E-1
4.025534462E0,-4.242858887E-1,-2.170562744E-1,5.801849365E-1
4.028036904E0,-4.157562256E-1,-2.170562744E-1,5.620727539E-1
4.030508827E0,-4.104309082E-1,-2.159881592E-1,5.482330322E-1
4.032980751E0,-4.083099365E-1,-2.149200439E-1,5.354461670E-1
4.035483193E0,-4.029846191E-1,-2.053375244E-1,5.184020996E-1
4.037955116E0,-3.997802734E-1,-1.989440918E-1,5.066833496E-1
4.040427040E0,-3.976440430E-1,-1.946716309E-1,4.907073975E-1
4.042929482E0,-3.997802734E-1,-1.893463135E-1,4.757995605E-1
4.045401406E0,-4.029846191E-1,-1.829681396E-1,4.640808105E-1
4.047903847E0,-4.051055908E-1,-1.755065918E-1,4.502258301E-1
4.050375771E0,-4.083099365E-1,-1.680450439E-1,4.353179932E-1
4.052878212E0,-4.114990234E-1,-1.542053223E-1,4.235992432E-1
4.055350136E0,-4.157562256E-1,-1.382141113E-1,4.140014648E-1
4.057822060E0,-4.232177734E-1,-1.286315918E-1,4.012298584E-1
4.060293984E0,-4.285430908E-1,-1.147918701E-1,3.884429932E-1
4.062796425E0,-4.328002930E-1,-9.561157227E-2,3.799133301E-1
4.065268349E0,-4.360046387E-1,-7.110595703E-2,3.671417236E-1
4.067770790E0,-4.423980713E-1,-5.406188965E-2,3.543548584E-1
4.070242714E0,-4.477233887E-1,-3.276062012E-2,3.426361084E-1
4.072714638E0,-4.519805908E-1,-1.358032227E-2,3.351745605E-1
4.075217079E0,-4.583740234E-1,1.197814941E-2,3.255920410E-1
4.077689003E0,-4.626312256E-1,3.329467773E-2,3.138732910E-1
4.080160927E0,-4.700927734E-1,5.566406250E-2,3.042907715E-1
4.082663368E0,-4.775390625E-1,7.376098633E-2,3.000183105E-1
4.085135292E0,-4.807434082E-1,9.507751465E-2,2.915039062E-1
4.087637734E0,-4.892578125E-1,1.185150146E-1,2.851104736E-1
4.090109658E0,-4.977874756E-1,1.344909668E-1,2.797851562E-1
4.092581581E0,-5.052490234E-1,1.547241211E-1,2.702026367E-1
4.095084023E0,-5.095062256E-1,1.760253906E-1,2.638092041E-1
4.097555947E0,-5.180206299E-1,1.962738037E-1,2.606048584E-1
4.100027870E0,-5.276184082E-1,2.133178711E-1,2.510223389E-1
4.102530312E0,-5.308074951E-1,2.346191406E-1,2.478332520E-1
4.105002236E0,-5.372009277E-1,2.601928711E-1,2.414398193E-1
4.107504677E0,-5.467834473E-1,2.846832275E-1,2.329101562E-1
4.109976601E0,-5.489196777E-1,3.081207275E-1,2.265167236E-1
4.112448525E0,-5.510559082E-1,3.326263428E-1,2.222595215E-1
4.114950966E0,-5.574340820E-1,3.592529297E-1,2.169342041E-1
4.117422890E0,-5.617065430E-1,3.858947754E-1,2.126770020E-1
4.119894814E0,-5.617065430E-1,4.167785645E-1,2.030792236E-1
4.122397255E0,-5.617065430E-1,4.423522949E-1,1.934967041E-1
4.124869179E0,-5.617065430E-1,4.636535645E-1,1.892395020E-1
4.127371620E0,-5.638275146E-1,4.881591797E-1,1.807098389E-1
4.129843544E0,-5.617065430E-1,5.083923340E-1,1.700592041E-1
4.132315468E0,-5.617065430E-1,5.243682861E-1,1.615447998E-1
4.134817909E0,-5.606384277E-1,5.435485840E-1,1.540832520E-1
4.137289833E0,-5.553131104E-1,5.616607666E-1,1.466217041E-1
4.139792275E0,-5.510559082E-1,5.787048340E-1,1.381072998E-1
4.142264199E0,-5.467834473E-1,5.989379883E-1,1.295776367E-1
4.144736122E0,-5.403900146E-1,6.085357666E-1,1.242523193E-1
4.147238564E0,-5.286865234E-1,6.202545166E-1,1.157379150E-1
4.149710488E0,-5.222930908E-1,6.340942383E-1,1.146697998E-1
4.152182411E0,-5.116424561E-1,6.500701904E-1,1.072082520E-1
4.154684853E0,-4.977874756E-1,6.575317383E-1,1.018829346E-1
4.157156777E0,-4.860687256E-1,6.596679688E-1,9.762573242E-2
4.159628700E0,-4.711608887E-1,6.660614014E-1,9.336853027E-2
4.162131142E0,-4.551696777E-1,6.724395752E-1,8.804321289E-2
4.164603066E0,-4.370727539E-1,6.735076904E-1,8.058166504E-2
4.167105507E0,-4.221496582E-1,6.703186035E-1,7.418823242E-2
4.169577431E0,-4.029846191E-1,6.713867188E-1,6.672668457E-2
4.172049355E0,-3.859405518E-1,6.649932861E-1,5.928039551E-2
4.174551796E0,-3.710174561E-1,6.575317383E-1,5.500793457E-2
4.177023720E0,-3.592987061E-1,6.511383057E-1,4.756164551E-2
4.179495644E0,-3.390655518E-1,6.309051514E-1,3.903198242E-2
4.181998085E0,-3.241424561E-1,6.085357666E-1,2.838134766E-2
4.184470009E0,-3.092346191E-1,5.882873535E-1,1.666259766E-2
4.186972450E0,-2.932586670E-1,5.648498535E-1,8.148193359E-3
4.189444374E0,-2.815399170E-1,5.414123535E-1,-2.517700195E-3
4.191916298E0,-2.687530518E-1,5.179901123E-1,-1.423645020E-2
4.194418740E0,-2.495727539E-1,4.966735840E-1,-2.488708496E-2
4.196890663E0,-2.335968018E-1,4.796295166E-1,-3.979492188E-2
4.199362587E0,-2.133636475E-1,4.689788818E-1,-5.151367188E-2
4.201865029E0,-1.984405518E-1,4.604644775E-1,-6.536865234E-2
4.204336952E0,-1.856689453E-1,4.572601318E-1,-7.495117188E-2
4.206839394E0,-1.707458496E-1,4.540710449E-1,-8.879089355E-2
4.209311318E0,-1.494445801E-1,4.508666992E-1,-1.047821045E-1
4.211783241E0,-1.313323975E-1,4.530029297E-1,-1.186218262E-1
4.214285683E0,-1.036376953E-1,4.551391602E-1,-1.324768066E-1
4.216757607E0,-8.020019531E-2,4.838867188E-1,-1.441955566E-1
4.219229531E0,-6.636047363E-2,5.350341797E-1,-1.548461914E-1
4.221731972E0,-4.718017578E-2,5.765686035E-1,-1.633605957E-1
4.224203896E0,-3.120422363E-2,5.882873535E-1,-1.804046631E-1
4.226706337E0,-9.902954102E-3,5.818939209E-1,-1.942596436E-1
4.229178261E0,1.567077637E-2,5.946807861E-1,-2.113037109E-1
4.231650185E0,4.124450684E-2,6.159820557E-1,-2.304840088E-1
4.234152626E0,7.106018066E-2,6.298370361E-1,-2.507171631E-1
4.236624550E0,9.875488281E-2,6.245117188E-1,-2.752227783E-1
4.239096474E0,1.296539307E-1,6.127929688E-1,-3.007812500E-1
4.241598915E0,1.648101807E-1,6.095886230E-1,-3.231506348E-1
4.244070839E0,1.988983154E-1,6.053314209E-1,-3.519134521E-1
4.246573281E0,2.319183350E-1,5.904235840E-1,-3.838806152E-1
4.249045204E0,2.713317871E-1,5.680541992E-1,-4.094390869E-1
4.251517128E0,3.160705566E-1,5.520782471E-1,-4.339447021E-1
4.254019570E0,3.554840088E-1,5.403594971E-1,-4.573822021E-1
4.256491493E0,3.959655762E-1,5.211791992E-1,-4.818725586E-1
4.258963417E0,4.417724609E-1,4.956054688E-1,-5.085144043E-1
4.261465859E0,4.886474609E-1,4.700469971E-1,-5.298156738E-1
4.263937783E0,5.333862305E-1,4.402160645E-1,-5.575103760E-1
4.266440224E0,5.749359131E-1,4.071960449E-1,-5.820159912E-1
4.268912148E0,6.196746826E-1,3.677825928E-1,-6.118469238E-1
4.271384072E0,6.697387695E-1,3.230438232E-1,-6.406097412E-1
4.273886513E0,7.134246826E-1,2.719116211E-1,-6.651000977E-1
4.276358437E0,7.570953369E-1,2.197113037E-1,-6.970672607E-1
4.278830361E0,7.986450195E-1,1.568603516E-1,-7.311553955E-1
4.281332802E0,8.412475586E-1,9.187316895E-2,-7.641754150E-1
4.283804726E0,8.827972412E-1,2.795410156E-2,-7.982635498E-1
4.286307167E0,9.264678955E-1,-3.808593750E-2,-8.334197998E-1
4.288779091E0,9.616241455E-1,-1.094512939E-1,-8.685760498E-1
4.291281533E0,9.967803955E-1,-1.786956787E-1,-9.037322998E-1
4.293753456E0,1.035125732E0,-2.490081787E-1,-9.399414062E-1
4.296225380E0,1.066024780E0,-3.193206787E-1,-9.708404541E-1
4.298697304E0,1.099044800E0,-3.896179199E-1,-1.005996704E0
4.301199745E0,1.128875732E0,-4.577941895E-1,-1.046463013E0
4.303671669E0,1.156570435E0,-5.227813721E-1,-1.080551147E0
4.306174111E0,1.184265137E0,-5.803070068E-1,-1.112518311E0
4.308646034E0,1.211959839E0,-6.335754395E-1,-1.148742676E0
4.311117958E0,1.231140137E0,-6.910858154E-1,-1.184951782E0
4.313620400E0,1.250305176E0,-7.400970459E-1,-1.220108032E0
4.316092324E0,1.270553589E0,-7.773742676E-1,-1.258453369E0
4.318564247E0,1.284393311E0,-8.157348633E-1,-1.296813965E0
4.321066689E0,1.295059204E0,-8.498229980E-1,-1.329833984E0
4.323538613E0,1.304641724E0,-8.807067871E-1,-1.369247437E0
4.326041054E0,1.309967041E0,-9.030761719E-1,-1.406524658E0
4.328512978E0,1.312103271E0,-9.201202393E-1,-1.444885254E0
4.330984902E0,1.308898926E0,-9.350433350E-1,-1.478973389E0
4.333487343E0,1.305709839E0,-9.414367676E-1,-1.509857178E0
4.335959267E0,1.298248291E0,-9.424896240E-1,-1.543945312E0
4.338431191E0,1.284393311E0,-9.371643066E-1,-1.579101562E0
4.340933632E0,1.270553589E0,-9.275817871E-1,-1.611053467E0
4.343405556E0,1.255645752E0,-9.126739502E-1,-1.643020630E0
4.345907997E0,1.233261108E0,-8.881683350E-1,-1.674972534E0
4.348379921E0,1.216217041E0,-8.625946045E-1,-1.704803467E0
4.350851845E0,1.193847656E0,-8.391571045E-1,-1.737823486E0
4.353354286E0,1.167221069E0,-8.146667480E-1,-1.765518188E0
4.355826210E0,1.136322021E0,-7.869720459E-1,-1.788955688E0
4.358298134E0,1.105438232E0,-7.560729980E-1,-1.818786621E0
4.360800575E0,1.075607300E0,-7.219848633E-1,-1.848617554E0
4.363272499E0,1.046844482E0,-6.889648438E-1,-1.872055054E0
4.365774941E0,1.014892578E0,-6.559448242E-1,-1.893356323E0
4.368246865E0,9.850616455E-1,-6.154632568E-1,-1.911468506E0
4.370718788E0,9.531097412E-1,-5.739135742E-1,-1.932769775E0
4.373221230E0,9.243469238E-1,-5.270385742E-1,-1.950881958E0
4.375693154E0,8.966522217E-1,-4.780426025E-1,-1.965789795E0
4.378165077E0,8.710784912E-1,-4.247741699E-1,-1.983901978E0
4.380667519E0,8.433837891E-1,-3.661804199E-1,-1.994552612E0
4.383139443E0,8.210144043E-1,-3.033294678E-1,-2.002014160E0
4.385641884E0,8.029022217E-1,-2.351531982E-1,-2.012664795E0
4.388113808E0,7.879943848E-1,-1.680450439E-1,-2.017990112E0
4.390585732E0,7.720031738E-1,-1.020050049E-1,-2.017990112E0
4.393088173E0,7.613525391E-1,-3.701782227E-2,-2.019058228E0
4.395560097E0,7.549591064E-1,3.115844727E-2,-2.020126343E0
4.398062538E0,7.485656738E-1,1.025238037E-1,-2.015853882E0
4.400534462E0,7.453765869E-1,1.653747559E-1,-2.009475708E0
4.403006386E0,7.411193848E-1,2.261047363E-1,-2.004150391E0
4.405508827E0,7.400512695E-1,2.900238037E-1,-1.998809814E0
4.407980751E0,7.453765869E-1,3.486022949E-1,-1.989227295E0
4.410452675E0,7.475128174E-1,3.965454102E-1,-1.976440430E0
4.412955116E0,7.507019043E-1,4.402160645E-1,-1.971115112E0
4.415427040E0,7.592315674E-1,4.806976318E-1,-1.961532593E0
4.417898964E0,7.688140869E-1,5.158538818E-1,-1.946624756E0
4.420401406E0,7.783966064E-1,5.488739014E-1,-1.930633545E0
4.422873329E0,7.879943848E-1,5.733795166E-1,-1.918914795E0
4.425375771E0,7.986450195E-1,5.850982666E-1,-1.906143188E0
4.427847695E0,8.082275391E-1,5.957489014E-1,-1.890167236E0
4.430319618E0,8.167572021E-1,6.021423340E-1,-1.877380371E0
4.432822060E0,8.263397217E-1,6.042633057E-1,-1.862457275E0
4.435293984E0,8.391265869E-1,5.978851318E-1,-1.844360352E0
4.437796425E0,8.518981934E-1,5.872192383E-1,-1.832641602E0
4.440268349E0,8.614959717E-1,5.733795166E-1,-1.817718506E0
4.442740273E0,8.700103760E-1,5.531311035E-1,-1.800674438E0
4.445242714E0,8.817291260E-1,5.286407471E-1,-1.785766602E0
4.447714638E0,8.934478760E-1,4.988098145E-1,-1.771911621E0
4.450186562E0,9.051666260E-1,4.572601318E-1,-1.752746582E0
4.452689003E0,9.190216064E-1,4.146575928E-1,-1.735702515E0
4.455160927E0,9.317932129E-1,3.677825928E-1,-1.722915649E0
4.457663368E0,9.467163086E-1,3.123931885E-1,-1.710128784E0
4.460135292E0,9.637603760E-1,2.505950928E-1,-1.693084717E0
4.462607216E0,9.776000977E-1,1.877441406E-1,-1.676040649E0
4.465109658E0,9.957122803E-1,1.227722168E-1,-1.666458130E0
4.467581581E0,1.009567261E0,5.245971680E-2,-1.655807495E0
4.470053505E0,1.026611328E0,-1.678466797E-2,-1.644088745E0
4.472555947E0,1.045776367E0,-8.602905273E-2,-1.631301880E0
4.475027870E0,1.063888550E0,-1.584625244E-1,-1.618515015E0
4.477530312E0,1.082000732E0,-2.287750244E-1,-1.605728149E0
4.480002236E0,1.094787598E0,-3.022766113E-1,-1.598281860E0
4.482474159E0,1.113952637E0,-3.736419678E-1,-1.591888428E0
4.484976601E0,1.132064819E0,-4.471435547E-1,-1.582290649E0
4.487448525E0,1.148040771E0,-5.099945068E-1,-1.572708130E0
4.489920449E0,1.167221069E0,-5.739135742E-1,-1.566314697E0
4.492422890E0,1.185333252E0,-6.335754395E-1,-1.559921265E0
4.494894814E0,1.201309204E0,-6.964111328E-1,-1.553543091E0
4.497397255E0,1.218353271E0,-7.560729980E-1,-1.547149658E0
4.499869179E0,1.236465454E0,-8.029479980E-1,-1.543945312E0
4.502371620E0,1.251373291E0,-8.466186523E-1,-1.540756226E0
4.504843544E0,1.264160156E0,-8.902893066E-1,-1.534362793E0
4.507315468E0,1.279067993E0,-9.265136719E-1,-1.527969360E0
4.509787392E0,1.295059204E0,-9.563446045E-1,-1.524780273E0
4.512289833E0,1.312103271E0,-9.819030762E-1,-1.516250610E0
4.514761757E0,1.323822021E0,-1.003219604E0,-1.515182495E0
4.517233681E0,1.335540771E0,-1.022384644E0,-1.508789062E0
4.519736122E0,1.348312378E0,-1.041564941E0,-1.506668091E0
4.522208046E0,1.357910156E0,-1.053283691E0,-1.505599976E0
4.524710488E0,1.367492676E0,-1.060745239E0,-1.505599976E0
4.527182411E0,1.378143311E0,-1.067123413E0,-1.502410889E0
4.529654335E0,1.378143311E0,-1.067123413E0,-1.504531860E0
4.532156777E0,1.380279541E0,-1.069259644E0,-1.506668091E0
4.534628700E0,1.384536743E0,-1.068191528E0,-1.506668091E0
4.537131142E0,1.381332397E0,-1.063934326E0,-1.504531860E0
4.539603066E0,1.377075195E0,-1.059677124E0,-1.505599976E0
4.542074990E0,1.371749878E0,-1.063934326E0,-1.502410889E0
4.544577431E0,1.366424561E0,-1.059677124E0,-1.501342773E0
4.547049355E0,1.357910156E0,-1.058609009E0,-1.500274658E0
4.549551796E0,1.352584839E0,-1.057540894E0,-1.500274658E0
4.552023720E0,1.344055176E0,-1.052215576E0,-1.499206543E0
4.554495644E0,1.334472656E0,-1.051147461E0,-1.496017456E0
4.556998085E0,1.332336426E0,-1.046890259E0,-1.491744995E0
4.559470009E0,1.323822021E0,-1.036239624E0,-1.490692139E0
4.561941933E0,1.315292358E0,-1.028778076E0,-1.482162476E0
4.564444374E0,1.305709839E0,-1.015991211E0,-1.475769043E0
4.566916298E0,1.296112061E0,-1.003219604E0,-1.471511841E0
4.569388222E0,1.287597656E0,-9.861755371E-1,-1.464050293E0
4.571890663E0,1.280136108E0,-9.648590088E-1,-1.453399658E0
4.574362587E0,1.271621704E0,-9.467620850E-1,-1.439559937E0
4.576865029E0,1.263092041E0,-9.254455566E-1,-1.427841187E0
4.579336952E0,1.252441406E0,-9.009552002E-1,-1.413986206E0
4.581808876E0,1.243927002E0,-8.785858154E-1,-1.404403687E0
4.584311318E0,1.235397339E0,-8.551483154E-1,-1.389480591E0
4.586783241E0,1.231140137E0,-8.231811523E-1,-1.371368408E0
4.589255165E0,1.224746704E0,-8.029479980E-1,-1.355392456E0
4.591757607E0,1.215164185E0,-7.816467285E-1,-1.337280273E0
4.594229531E0,1.210891724E0,-7.582092285E-1,-1.318115234E0
4.596731972E0,1.205566406E0,-7.347717285E-1,-1.296813965E0
4.599203896E0,1.202377319E0,-7.124023438E-1,-1.277633667E0
4.601675820E0,1.197052002E0,-6.942901611E-1,-1.256332397E0
4.604178261E0,1.189590454E0,-6.783142090E-1,-1.233963013E0
4.606650185E0,1.186401367E0,-6.623229980E-1,-1.210525513E0
4.609152626E0,1.178939819E0,-6.420898438E-1,-1.183883667E0
4.611624550E0,1.176803589E0,-6.261138916E-1,-1.160446167E0
4.614096474E0,1.176803589E0,-6.111907959E-1,-1.135955811E0
4.616598915E0,1.176803589E0,-6.026763916E-1,-1.108261108E0
4.619070839E0,1.171478271E0,-5.930938721E-1,-1.081619263E0
4.621542763E0,1.171478271E0,-5.845642090E-1,-1.052856445E0
4.624045204E0,1.169357300E0,-5.813751221E-1,-1.017715454E0
4.626517128E0,1.167221069E0,-5.824279785E-1,-9.868164062E-1
4.628989052E0,1.161895752E0,-5.909576416E-1,-9.591217041E-1
4.631491493E0,1.158706665E0,-5.941467285E-1,-9.239654541E-1
4.633963417E0,1.157638550E0,-5.973510742E-1,-8.909454346E-1
4.636465859E0,1.150177002E0,-6.101379395E-1,-8.547210693E-1
4.638937783E0,1.143783569E0,-6.239776611E-1,-8.206329346E-1
4.641409706E0,1.135269165E0,-6.389007568E-1,-7.822875977E-1
4.643912148E0,1.127807617E0,-6.548767090E-1,-7.460632324E-1
4.646384072E0,1.119277954E0,-6.697845459E-1,-7.066497803E-1
4.648855995E0,1.108627319E0,-6.836395264E-1,-6.672363281E-1
4.651358437E0,1.096908569E0,-6.996154785E-1,-6.299591064E-1
4.653830361E0,1.087326050E0,-7.081298828E-1,-5.905303955E-1
4.656332802E0,1.076675415E0,-7.177276611E-1,-5.500640869E-1
4.658804726E0,1.068145752E0,-7.305145264E-1,-5.085144043E-1
4.661276650E0,1.064956665E0,-7.411651611E-1,-4.680328369E-1
4.663779091E0,1.059631348E0,-7.528839111E-1,-4.275512695E-1
4.666251015E0,1.052169800E0,-7.646026611E-1,-3.892059326E-1
4.668722939E0,1.045776367E0,-7.763061523E-1,-3.476562500E-1
4.671225380E0,1.047912598E0,-7.933502197E-1,-3.050537109E-1
4.673697304E0,1.042587280E0,-8.135986328E-1,-2.677612305E-1
4.676199745E0,1.043655396E0,-8.359680176E-1,-2.262115479E-1
4.678671669E0,1.046844482E0,-8.679199219E-1,-1.867980957E-1
4.681143593E0,1.045776367E0,-8.998870850E-1,-1.441955566E-1
4.683646034E0,1.044723511E0,-9.339752197E-1,-1.047821045E-1
4.686117958E0,1.045776367E0,-9.755249023E-1,-6.536865234E-2
4.688589882E0,1.047912598E0,-1.013870239E0,-2.275085449E-2
4.691092324E0,1.048980713E0,-1.060745239E0,1.773071289E-2
4.693564247E0,1.050048828E0,-1.111877441E0,5.821228027E-2
4.696066689E0,1.053237915E0,-1.165130615E0,9.976196289E-2
4.698538613E0,1.056427002E0,-1.224792480E0,1.391754150E-1
4.701010536E0,1.058563232E0,-1.286575317E0,1.785888672E-1
4.703512978E0,1.056427002E0,-1.354751587E0,2.180023193E-1
4.705984902E0,1.059631348E0,-1.423995972E0,2.563476562E-1
4.708456825E0,1.058563232E0,-1.498565674E0,2.968292236E-1
4.710959267E0,1.056427002E0,-1.569931030E0,3.415679932E-1
4.713431191E0,1.054306030E0,-1.639175415E0,3.831176758E-1
4.715933632E0,1.055374146E0,-1.706283569E0,4.289245605E-1
4.718405556E0,1.052169800E0,-1.762741089E0,4.768524170E-1
4.720877480E0,1.050048828E0,-1.824539185E0,5.247955322E-1
4.723379921E0,1.050048828E0,-1.870346069E0,5.727386475E-1
4.725851845E0,1.053237915E0,-1.904434204E0,6.206665039E-1
4.728323769E0,1.057495117E0,-1.934249878E0,6.707305908E-1
4.730826210E0,1.059631348E0,-1.954498291E0,7.208099365E-1
4.733298134E0,1.061767578E0,-1.967285156E0,7.719421387E-1
4.735800575E0,1.070281982E0,-1.975799561E0,8.241271973E-1
4.738272499E0,1.074539185E0,-1.970474243E0,8.795318604E-1
4.740744423E0,1.084136963E0,-1.961959839E0,9.327850342E-1
4.743246865E0,1.093719482E0,-1.951293945E0,9.903106689E-1
4.745718788E0,1.104370117E0,-1.934249878E0,1.040390015E0
4.748190712E0,1.116088867E0,-1.920410156E0,1.090454102E0
4.750693154E0,1.126739502E0,-1.905487061E0,1.143707275E0
4.753165077E0,1.136322021E0,-1.892715454E0,1.198043823E0
4.755667519E0,1.146987915E0,-1.874603271E0,1.245971680E0
4.758139443E0,1.157638550E0,-1.867141724E0,1.296051025E0
4.760611366E0,1.167221069E0,-1.863952637E0,1.347183228E0
4.763113808E0,1.176803589E0,-1.865020752E0,1.394058228E0
4.765585732E0,1.188522339E0,-1.863952637E0,1.444122314E0
4.768057656E0,1.195983887E0,-1.875671387E0,1.489929199E0
4.770560097E0,1.204513550E0,-1.891647339E0,1.532531738E0
4.773032021E0,1.210891724E0,-1.903366089E0,1.576217651E0
4.775534462E0,1.219421387E0,-1.915084839E0,1.619888306E0
4.778006386E0,1.225814819E0,-1.932128906E0,1.663558960E0
4.780478310E0,1.234329224E0,-1.949172974E0,1.704040527E0
4.782980751E0,1.244979858E0,-1.968338013E0,1.743453979E0
4.785452675E0,1.250305176E0,-1.984329224E0,1.787139893E0
4.787924599E0,1.258834839E0,-2.005630493E0,1.825485229E0
4.790427040E0,1.266296387E0,-2.025863647E0,1.867034912E0
4.792898964E0,1.275878906E0,-2.043975830E0,1.906448364E0
4.795401406E0,1.282272339E0,-2.065277100E0,1.949050903E0
4.797873329E0,1.289733887E0,-2.085525513E0,1.987396240E0
4.800345253E0,1.295059204E0,-2.104705811E0,2.026824951E0
4.802847695E0,1.301452637E0,-2.130264282E0,2.065170288E0
4.805319618E0,1.307830811E0,-2.146240234E0,2.099258423E0
4.807791542E0,1.312103271E0,-2.162216187E0,2.135467529E0
4.810293984E0,1.318496704E0,-2.176071167E0,2.172760010E0
4.812765908E0,1.321685791E0,-2.188858032E0,2.205780029E0
4.815268349E0,1.324874878E0,-2.196304321E0,2.242004395E0
4.817740273E0,1.332336426E0,-2.205902100E0,2.275024414E0
4.820212197E0,1.333404541E0,-2.214416504E0,2.305923462E0
4.822714638E0,1.337661743E0,-2.221878052E0,2.336807251E0
4.825186562E0,1.340866089E0,-2.224014282E0,2.369827271E0
4.827658486E0,1.348312378E0,-2.230392456E0,2.406051636E0
4.830160927E0,1.356842041E0,-2.236785889E0,2.435882568E0
4.832632851E0,1.368560791E0,-2.238922119E0,2.464645386E0
4.835135292E0,1.379211426E0,-2.251708984E0,2.495529175E0
4.837607216E0,1.390930176E0,-2.271942139E0,2.529617310E0
4.840079140E0,1.405838013E0,-2.299636841E0,2.555191040E0
4.842581581E0,1.419692993E0,-2.330535889E0,2.583953857E0
4.845053505E0,1.434600830E0,-2.368881226E0,2.610580444E0
4.847525429E0,1.446319580E0,-2.411499023E0,2.634017944E0
4.850027870E0,1.460174561E0,-2.453033447E0,2.658523560E0
4.852499794E0,1.474014282E0,-2.496719360E0,2.681961060E0
4.855002236E0,1.492126465E0,-2.548919678E0,2.699005127E0
4.857474159E0,1.511306763E0,-2.593658447E0,2.717102051E0
4.859946083E0,1.528350830E0,-2.634140015E0,2.732025146E0
4.862448525E0,1.547515869E0,-2.676742554E0,2.746932983E0
4.864920449E0,1.572021484E0,-2.714035034E0,2.761856079E0
4.867392372E0,1.595458984E0,-2.744918823E0,2.774627686E0
4.869894814E0,1.619964600E0,-2.770492554E0,2.784225464E0
4.872366738E0,1.648727417E0,-2.791793823E0,2.799133301E0
4.874869179E0,1.677490234E0,-2.810974121E0,2.812988281E0
4.877341103E0,1.707305908E0,-2.821624756E0,2.820434570E0
4.879813027E0,1.738204956E0,-2.825881958E0,2.832153320E0
4.882315468E0,1.771224976E0,-2.825881958E0,2.842803955E0
4.884787392E0,1.803192139E0,-2.825881958E0,2.855590820E0
4.887259316E0,1.836212158E0,-2.814163208E0,2.866241455E0
4.889761757E0,1.872421265E0,-2.799255371E0,2.874771118E0
4.892233681E0,1.906509399E0,-2.785400391E0,2.890747070E0
4.894736122E0,1.938476562E0,-2.760894775E0,2.901397705E0
4.897208046E0,1.973632812E0,-2.731079102E0,2.915252686E0
4.899679970E0,2.008773804E0,-2.706573486E0,2.929092407E0
4.902182411E0,2.042861938E0,-2.684204102E0,2.942947388E0
4.904654335E0,2.076950073E0,-2.655441284E0,2.961059570E0
4.907126259E0,2.112106323E0,-2.628814697E0,2.977035522E0
4.909628700E0,2.147262573E0,-2.607498169E0,2.996215820E0
4.912100624E0,2.184555054E0,-2.588333130E0,3.014312744E0
4.914603066E0,2.216506958E0,-2.578735352E0,3.033493042E0
4.917074990E0,2.249526978E0,-2.574478149E0,3.052673340E0
4.919546913E0,2.282546997E0,-2.564895630E0,3.070770264E0
4.922049355E0,2.313446045E0,-2.563827515E0,3.087814331E0
4.924521279E0,2.341140747E0,-2.570220947E0,3.102737427E0
4.926993202E0,2.372039795E0,-2.572341919E0,3.116577148E0
4.929495644E0,2.398666382E0,-2.577682495E0,3.129364014E0
4.931967568E0,2.427429199E0,-2.589401245E0,3.145339966E0
4.934470009E0,2.454055786E0,-2.605377197E0,3.153869629E0
4.936941933E0,2.480697632E0,-2.617095947E0,3.161331177E0
4.939413857E0,2.504135132E0,-2.632003784E0,3.174102783E0
4.941916298E0,2.527557373E0,-2.646911621E0,3.181564331E0
4.944388222E0,2.547805786E0,-2.667160034E0,3.184753418E0
4.946860146E0,2.569107056E0,-2.680999756E0,3.191146851E0
4.949362587E0,2.592544556E0,-2.699111938E0,3.194351196E0
4.951834511E0,2.612792969E0,-2.718292236E0,3.194351196E0
4.954336952E0,2.634094238E0,-2.731079102E0,3.191146851E0
4.956808876E0,2.647933960E0,-2.742797852E0,3.187957764E0
4.959311318E0,2.668182373E0,-2.753448486E0,3.189025879E0
4.961783241E0,2.685226440E0,-2.763031006E0,3.181564331E0
4.964255165E0,2.699066162E0,-2.770492554E0,3.173049927E0
4.966727089E0,2.713989258E0,-2.775817871E0,3.165588379E0
4.969229531E0,2.722503662E0,-2.780075073E0,3.159194946E0
4.971701454E0,2.734222412E0,-2.780075073E0,3.148544312E0
4.974203896E0,2.747009277E0,-2.781143188E0,3.137893677E0
4.976675820E0,2.754470825E0,-2.782211304E0,3.126174927E0
4.979147743E0,2.757659912E0,-2.772613525E0,3.115524292E0
4.981650185E0,2.761917114E0,-2.761962891E0,3.105926514E0
4.984122109E0,2.766189575E0,-2.749176025E0,3.093154907E0
4.986594033E0,2.767242432E0,-2.732131958E0,3.082489014E0
4.989096474E0,2.770446777E0,-2.711898804E0,3.072906494E0
4.991568398E0,2.766189575E0,-2.688461304E0,3.057998657E0
4.994070839E0,2.760864258E0,-2.661834717E0,3.046279907E0
4.996542763E0,2.758728027E0,-2.625610352E0,3.032424927E0
